PE FL                   SPECTRUM    ASCII       PEDS        1.60        
  -1
DMB028.SP
23/03/01
17:20:23.00
23/03/01
17:21:24.00


700.500000
1









LS50-B
415.00
2.50
2.50
SCAN
1
20
100
100
0
400
0
1
0
1
7
ON
700 415 
1 0 0
#HDR
-1
-1
#GR
NM
INT 
0.00002384185791015625
0.0
380.000000
0.500000
642
8
343.781000
-0.027000
#DATA
380.000000	0.110000   
380.500000	-0.027000  
381.000000	0.051000   
381.500000	0.112000   
382.000000	0.055000   
382.500000	0.027000   
383.000000	0.082000   
383.500000	0.238000   
384.000000	0.086999   
384.500000	0.250000   
385.000000	0.121000   
385.500000	0.194000   
386.000000	0.128000   
386.500000	0.178000   
387.000000	0.179000   
387.500000	0.179000   
388.000000	0.141000   
388.500000	0.123000   
389.000000	0.144000   
389.500000	0.274000   
390.000000	0.047000   
390.500000	0.110000   
391.000000	0.247000   
391.500000	0.236000   
392.000000	0.229000   
392.500000	0.256000   
393.000000	0.211000   
393.500000	0.446000   
394.000000	0.248000   
394.500000	0.211000   
395.000000	0.083000   
395.500000	0.135000   
396.000000	0.101000   
396.500000	0.056000   
397.000000	0.162000   
397.500000	0.238000   
398.000000	0.046000   
398.500000	0.186000   
399.000000	0.147000   
399.500000	0.368000   
400.000000	0.159000   
400.500000	0.250000   
401.000000	0.183000   
401.500000	0.100000   
402.000000	0.415000   
402.500000	0.335000   
403.000000	0.224000   
403.500000	0.238000   
404.000000	0.101000   
404.500000	0.317000   
405.000000	0.376000   
405.500000	0.242000   
406.000000	0.319000   
406.500000	0.485000   
407.000000	0.210000   
407.500000	0.241000   
408.000000	0.692999   
408.500000	0.576000   
409.000000	1.188000   
409.500000	1.766000   
410.000000	3.115000   
410.500000	6.016000   
411.000000	9.007999   
411.500000	15.744000  
412.000000	24.424000  
412.500000	32.533000  
413.000000	39.045000  
413.500000	50.359000  
414.000000	49.169000  
414.500000	44.688000  
415.000000	39.873000  
415.500000	30.681000  
416.000000	23.738000  
416.500000	17.119000  
417.000000	9.685000   
417.500000	6.089000   
418.000000	3.249000   
418.500000	1.401000   
419.000000	1.224000   
419.500000	0.549000   
420.000000	0.397000   
420.500000	0.527000   
421.000000	0.473000   
421.500000	0.729000   
422.000000	0.246000   
422.500000	0.393000   
423.000000	0.370000   
423.500000	0.247000   
424.000000	0.164000   
424.500000	0.437000   
425.000000	0.544000   
425.500000	0.492000   
426.000000	0.427000   
426.500000	0.084000   
427.000000	0.244000   
427.500000	0.910000   
428.000000	0.422000   
428.500000	0.258000   
429.000000	0.201000   
429.500000	0.190000   
430.000000	0.265000   
430.500000	0.254000   
431.000000	0.554000   
431.500000	0.195000   
432.000000	0.465000   
432.500000	0.588000   
433.000000	0.461000   
433.500000	0.136000   
434.000000	0.593000   
434.500000	0.410000   
435.000000	0.412000   
435.500000	0.724000   
436.000000	0.495000   
436.500000	0.806000   
437.000000	0.497000   
437.500000	0.529000   
438.000000	0.548000   
438.500000	0.475000   
439.000000	0.665000   
439.500000	0.671000   
440.000000	0.856000   
440.500000	0.710000   
441.000000	0.883000   
441.500000	0.982000   
442.000000	0.476000   
442.500000	0.776000   
443.000000	1.006000   
443.500000	0.913000   
444.000000	0.786000   
444.500000	0.733000   
445.000000	0.873000   
445.500000	0.955000   
446.000000	0.813999   
446.500000	0.726000   
447.000000	0.765000   
447.500000	0.806000   
448.000000	0.812000   
448.500000	1.020000   
449.000000	0.784000   
449.500000	0.786000   
450.000000	1.405000   
450.500000	0.867000   
451.000000	1.025000   
451.500000	1.004000   
452.000000	1.082000   
452.500000	1.265000   
453.000000	1.032000   
453.500000	1.281000   
454.000000	1.432000   
454.500000	0.766000   
455.000000	0.824000   
455.500000	0.780000   
456.000000	1.264000   
456.500000	1.093000   
457.000000	1.482000   
457.500000	1.307000   
458.000000	1.351000   
458.500000	1.247000   
459.000000	1.308000   
459.500000	1.316000   
460.000000	1.248000   
460.500000	1.218000   
461.000000	1.266000   
461.500000	1.615000   
462.000000	1.459000   
462.500000	1.109000   
463.000000	1.417000   
463.500000	1.360000   
464.000000	1.198000   
464.500000	1.434000   
465.000000	2.105000   
465.500000	1.478000   
466.000000	1.553000   
466.500000	1.495000   
467.000000	0.816999   
467.500000	1.668000   
468.000000	1.545000   
468.500000	1.850000   
469.000000	1.626000   
469.500000	1.486000   
470.000000	1.508000   
470.500000	1.847000   
471.000000	1.153000   
471.500000	2.110000   
472.000000	1.890000   
472.500000	2.224000   
473.000000	1.694000   
473.500000	1.765000   
474.000000	1.988000   
474.500000	1.820000   
475.000000	1.514000   
475.500000	2.323000   
476.000000	2.155000   
476.500000	2.024000   
477.000000	2.550000   
477.500000	2.660000   
478.000000	2.153000   
478.500000	2.655000   
479.000000	3.121000   
479.500000	2.625000   
480.000000	2.968000   
480.500000	2.695000   
481.000000	3.231000   
481.500000	4.084000   
482.000000	3.765000   
482.500000	3.599000   
483.000000	3.053000   
483.500000	4.114000   
484.000000	4.247000   
484.500000	4.075000   
485.000000	5.037000   
485.500000	4.776000   
486.000000	6.431000   
486.500000	6.369000   
487.000000	6.732000   
487.500000	5.560000   
488.000000	8.550000   
488.500000	8.112000   
489.000000	9.840999   
489.500000	10.265000  
490.000000	11.726000  
490.500000	12.575000  
491.000000	12.541000  
491.500000	14.708000  
492.000000	15.810000  
492.500000	15.675000  
493.000000	17.408000  
493.500000	20.537000  
494.000000	20.977000  
494.500000	23.154000  
495.000000	26.349000  
495.500000	29.132000  
496.000000	31.011000  
496.500000	33.499000  
497.000000	36.785000  
497.500000	39.209000  
498.000000	44.555000  
498.500000	52.363000  
499.000000	55.457000  
499.500000	59.964000  
500.000000	66.895000  
500.500000	67.429000  
501.000000	74.351000  
501.500000	82.736000  
502.000000	87.965000  
502.500000	93.367999  
503.000000	102.184000 
503.500000	107.657000 
504.000000	117.452000 
504.500000	126.752000 
505.000000	135.576000 
505.500000	150.523000 
506.000000	154.843000 
506.500000	165.785000 
507.000000	173.108000 
507.500000	179.292000 
508.000000	195.580000 
508.500000	201.536000 
509.000000	212.916000 
509.500000	230.348000 
510.000000	231.041000 
510.500000	243.278000 
511.000000	255.823000 
511.500000	263.637000 
512.000000	269.342000 
512.500000	271.312000 
513.000000	283.990000 
513.500000	302.794000 
514.000000	309.022000 
514.500000	317.232000 
515.000000	314.547000 
515.500000	323.475000 
516.000000	316.854000 
516.500000	324.016000 
517.000000	336.446000 
517.500000	327.701000 
518.000000	343.781000 
518.500000	339.020000 
519.000000	334.035000 
519.500000	330.258000 
520.000000	334.721000 
520.500000	337.777000 
521.000000	342.051000 
521.500000	329.844000 
522.000000	338.922000 
522.500000	330.161000 
523.000000	328.549000 
523.500000	330.649000 
524.000000	326.423000 
524.500000	322.252000 
525.000000	314.849000 
525.500000	314.714000 
526.000000	311.050000 
526.500000	300.737000 
527.000000	303.477000 
527.500000	285.486000 
528.000000	291.630000 
528.500000	293.104000 
529.000000	283.292000 
529.500000	279.402000 
530.000000	278.931000 
530.500000	263.060000 
531.000000	258.271000 
531.500000	268.321000 
532.000000	263.538000 
532.500000	257.647000 
533.000000	249.895000 
533.500000	242.476000 
534.000000	237.060000 
534.500000	236.634000 
535.000000	235.006000 
535.500000	231.786000 
536.000000	222.784000 
536.500000	221.352000 
537.000000	214.874000 
537.500000	214.304000 
538.000000	207.843000 
538.500000	206.917000 
539.000000	209.111000 
539.500000	205.113000 
540.000000	196.020000 
540.500000	198.055000 
541.000000	191.343000 
541.500000	197.246000 
542.000000	186.980000 
542.500000	182.064000 
543.000000	183.997000 
543.500000	182.337000 
544.000000	180.797000 
544.500000	175.858000 
545.000000	172.093000 
545.500000	169.073000 
546.000000	169.280000 
546.500000	161.122000 
547.000000	162.051000 
547.500000	164.349000 
548.000000	162.519000 
548.500000	161.803000 
549.000000	154.642000 
549.500000	150.818000 
550.000000	148.873000 
550.500000	147.841000 
551.000000	145.764000 
551.500000	135.796000 
552.000000	143.178000 
552.500000	138.107000 
553.000000	137.502000 
553.500000	126.134000 
554.000000	134.462000 
554.500000	133.145000 
555.000000	130.422000 
555.500000	131.654000 
556.000000	126.255000 
556.500000	126.991000 
557.000000	120.302000 
557.500000	115.886000 
558.000000	117.654000 
558.500000	116.313000 
559.000000	114.241000 
559.500000	111.141000 
560.000000	107.800000 
560.500000	104.110000 
561.000000	106.447000 
561.500000	105.381000 
562.000000	97.438000  
562.500000	98.796000  
563.000000	97.545000  
563.500000	95.514000  
564.000000	91.047000  
564.500000	92.596999  
565.000000	90.474000  
565.500000	87.102999  
566.000000	89.611999  
566.500000	84.334999  
567.000000	83.755000  
567.500000	80.974999  
568.000000	78.514000  
568.500000	79.072999  
569.000000	79.319999  
569.500000	69.479000  
570.000000	71.795000  
570.500000	70.955000  
571.000000	68.569000  
571.500000	66.315000  
572.000000	68.593999  
572.500000	63.995000  
573.000000	60.380000  
573.500000	59.118000  
574.000000	62.169000  
574.500000	58.291000  
575.000000	57.189000  
575.500000	57.912000  
576.000000	55.167000  
576.500000	53.785000  
577.000000	50.286000  
577.500000	55.914000  
578.000000	49.843000  
578.500000	50.243000  
579.000000	48.676000  
579.500000	51.987000  
580.000000	46.770000  
580.500000	46.310000  
581.000000	44.819000  
581.500000	43.843000  
582.000000	42.089000  
582.500000	41.337000  
583.000000	42.192000  
583.500000	38.563000  
584.000000	39.223000  
584.500000	39.175000  
585.000000	37.609000  
585.500000	37.003000  
586.000000	35.990000  
586.500000	35.215000  
587.000000	35.738000  
587.500000	32.830000  
588.000000	33.645000  
588.500000	31.840000  
589.000000	31.459000  
589.500000	33.156000  
590.000000	30.504000  
590.500000	29.396000  
591.000000	29.609000  
591.500000	30.144000  
592.000000	29.391000  
592.500000	28.587000  
593.000000	27.028000  
593.500000	28.113000  
594.000000	27.071000  
594.500000	26.187000  
595.000000	26.439000  
595.500000	24.381000  
596.000000	25.018000  
596.500000	24.222000  
597.000000	25.012000  
597.500000	23.899000  
598.000000	22.500000  
598.500000	21.721000  
599.000000	21.529000  
599.500000	24.478000  
600.000000	22.570000  
600.500000	22.446000  
601.000000	22.325000  
601.500000	21.431000  
602.000000	19.413000  
602.500000	19.712000  
603.000000	20.010000  
603.500000	19.230000  
604.000000	20.455000  
604.500000	17.123000  
605.000000	17.467000  
605.500000	19.509000  
606.000000	17.257000  
606.500000	17.478000  
607.000000	16.216000  
607.500000	17.403000  
608.000000	15.982000  
608.500000	16.070000  
609.000000	15.779000  
609.500000	16.005000  
610.000000	14.149000  
610.500000	14.426000  
611.000000	14.454000  
611.500000	11.605000  
612.000000	14.870000  
612.500000	12.841000  
613.000000	13.645000  
613.500000	14.566000  
614.000000	11.796000  
614.500000	11.880000  
615.000000	12.588000  
615.500000	11.780000  
616.000000	12.014000  
616.500000	12.842000  
617.000000	12.626000  
617.500000	10.865000  
618.000000	11.685000  
618.500000	12.645000  
619.000000	11.161000  
619.500000	11.838000  
620.000000	10.419000  
620.500000	10.089000  
621.000000	10.506000  
621.500000	10.237000  
622.000000	9.182000   
622.500000	10.206000  
623.000000	9.901000   
623.500000	9.685000   
624.000000	8.430999   
624.500000	7.385000   
625.000000	8.612000   
625.500000	9.177000   
626.000000	7.588000   
626.500000	8.638000   
627.000000	8.353000   
627.500000	8.419000   
628.000000	7.843000   
628.500000	7.074000   
629.000000	7.247000   
629.500000	7.232000   
630.000000	6.399000   
630.500000	6.657000   
631.000000	5.361000   
631.500000	6.453000   
632.000000	5.736000   
632.500000	5.826000   
633.000000	6.096000   
633.500000	6.989000   
634.000000	5.149000   
634.500000	5.507000   
635.000000	5.292000   
635.500000	5.843000   
636.000000	5.600000   
636.500000	5.400000   
637.000000	4.685000   
637.500000	5.708000   
638.000000	4.450000   
638.500000	4.251000   
639.000000	4.094000   
639.500000	4.481000   
640.000000	4.385000   
640.500000	4.301000   
641.000000	4.051000   
641.500000	4.713000   
642.000000	4.763000   
642.500000	4.933000   
643.000000	3.935000   
643.500000	5.425000   
644.000000	3.249000   
644.500000	3.342000   
645.000000	3.808000   
645.500000	3.854000   
646.000000	3.868000   
646.500000	3.777000   
647.000000	3.176000   
647.500000	3.399000   
648.000000	3.251000   
648.500000	2.720000   
649.000000	3.128000   
649.500000	2.151000   
650.000000	3.102000   
650.500000	2.890000   
651.000000	2.627000   
651.500000	2.693000   
652.000000	2.610000   
652.500000	2.584000   
653.000000	2.723000   
653.500000	2.100000   
654.000000	3.072000   
654.500000	2.723000   
655.000000	2.402000   
655.500000	2.014000   
656.000000	2.243000   
656.500000	2.263000   
657.000000	2.508000   
657.500000	2.851000   
658.000000	2.999000   
658.500000	2.380000   
659.000000	2.226000   
659.500000	2.272000   
660.000000	1.883000   
660.500000	1.890000   
661.000000	2.018000   
661.500000	2.061000   
662.000000	2.195000   
662.500000	2.312000   
663.000000	1.565000   
663.500000	1.837000   
664.000000	1.686000   
664.500000	2.373000   
665.000000	1.723000   
665.500000	2.273000   
666.000000	1.496000   
666.500000	1.850000   
667.000000	1.928000   
667.500000	1.612000   
668.000000	1.609000   
668.500000	1.571000   
669.000000	1.656000   
669.500000	1.770000   
670.000000	1.400000   
670.500000	1.548000   
671.000000	1.694000   
671.500000	1.547000   
672.000000	1.787000   
672.500000	1.581000   
673.000000	1.291000   
673.500000	1.678000   
674.000000	1.452000   
674.500000	1.541000   
675.000000	2.029000   
675.500000	1.126000   
676.000000	1.328000   
676.500000	1.092000   
677.000000	1.412000   
677.500000	0.747000   
678.000000	1.399000   
678.500000	1.217000   
679.000000	1.076000   
679.500000	1.137000   
680.000000	1.545000   
680.500000	1.071000   
681.000000	0.788000   
681.500000	0.858000   
682.000000	1.003000   
682.500000	1.110000   
683.000000	0.895000   
683.500000	0.929000   
684.000000	0.650000   
684.500000	0.846000   
685.000000	0.681000   
685.500000	0.744000   
686.000000	0.762000   
686.500000	0.920000   
687.000000	0.921000   
687.500000	1.213000   
688.000000	0.986000   
688.500000	0.880000   
689.000000	1.115000   
689.500000	0.692999   
690.000000	1.130000   
690.500000	0.724000   
691.000000	0.893000   
691.500000	1.160000   
692.000000	0.971000   
692.500000	1.038000   
693.000000	0.700000   
693.500000	0.968000   
694.000000	0.904000   
694.500000	0.460000   
695.000000	0.522000   
695.500000	0.685000   
696.000000	1.094000   
696.500000	0.840000   
697.000000	0.743000   
697.500000	0.642000   
698.000000	0.562000   
698.500000	0.527000   
699.000000	0.767000   
699.500000	0.687000   
700.000000	0.636000   
700.500000	0.586000   

