PE FL                   SPECTRUM    ASCII       PEDS        1.60        
  -1
DMB031.SP
23/03/01
17:30:20.00
23/03/01
17:31:21.00


700.500000
1









LS50-B
415.00
2.50
2.50
SCAN
1
20
100
100
0
400
0
1
0
1
7
ON
700 415 
1 0 0
#HDR
-1
-1
#GR
NM
INT 
0.00002384185791015625
0.0
380.000000
0.500000
642
8
237.061000
-0.135000
#DATA
380.000000	0.269000   
380.500000	-0.063000  
381.000000	0.025000   
381.500000	0.266000   
382.000000	0.084000   
382.500000	0.096000   
383.000000	0.147000   
383.500000	0.055000   
384.000000	0.014000   
384.500000	0.122000   
385.000000	0.047000   
385.500000	0.000000   
386.000000	0.000000   
386.500000	0.033000   
387.000000	0.016000   
387.500000	0.055000   
388.000000	0.296000   
388.500000	0.239000   
389.000000	0.160000   
389.500000	0.000000   
390.000000	0.258000   
390.500000	0.091000   
391.000000	0.233000   
391.500000	0.131000   
392.000000	0.080000   
392.500000	-0.033000  
393.000000	-0.013000  
393.500000	0.410000   
394.000000	-0.008999  
394.500000	0.172000   
395.000000	0.046000   
395.500000	0.056000   
396.000000	-0.047000  
396.500000	0.001000   
397.000000	-0.135000  
397.500000	0.269000   
398.000000	0.017000   
398.500000	0.061000   
399.000000	0.091000   
399.500000	0.195000   
400.000000	0.008000   
400.500000	0.090000   
401.000000	0.160000   
401.500000	0.055000   
402.000000	0.114000   
402.500000	0.292000   
403.000000	0.156000   
403.500000	0.111000   
404.000000	0.046000   
404.500000	0.083000   
405.000000	0.209000   
405.500000	0.234000   
406.000000	0.049000   
406.500000	0.269000   
407.000000	0.193000   
407.500000	0.056000   
408.000000	0.336000   
408.500000	0.406000   
409.000000	0.504000   
409.500000	1.416000   
410.000000	1.684000   
410.500000	2.820000   
411.000000	6.631000   
411.500000	10.066000  
412.000000	13.901000  
412.500000	17.248000  
413.000000	24.849000  
413.500000	27.074000  
414.000000	30.356000  
414.500000	26.988000  
415.000000	24.783000  
415.500000	22.441000  
416.000000	15.011000  
416.500000	8.990000   
417.000000	6.173000   
417.500000	4.937000   
418.000000	2.404000   
418.500000	1.438000   
419.000000	1.008000   
419.500000	0.547000   
420.000000	0.240000   
420.500000	0.463000   
421.000000	0.255000   
421.500000	0.307000   
422.000000	0.334000   
422.500000	0.465000   
423.000000	0.418000   
423.500000	0.056000   
424.000000	0.180000   
424.500000	0.389000   
425.000000	0.267000   
425.500000	0.292000   
426.000000	0.221000   
426.500000	0.214000   
427.000000	0.488000   
427.500000	0.245000   
428.000000	0.310000   
428.500000	0.468000   
429.000000	0.455000   
429.500000	0.293000   
430.000000	0.381000   
430.500000	0.375000   
431.000000	0.203000   
431.500000	0.246000   
432.000000	0.220000   
432.500000	0.252000   
433.000000	0.244000   
433.500000	0.565999   
434.000000	0.318000   
434.500000	0.241000   
435.000000	0.122000   
435.500000	0.111000   
436.000000	0.302000   
436.500000	0.196000   
437.000000	0.480000   
437.500000	0.368000   
438.000000	0.260000   
438.500000	0.197000   
439.000000	0.480000   
439.500000	0.638000   
440.000000	0.573000   
440.500000	0.661000   
441.000000	0.225000   
441.500000	0.617000   
442.000000	0.599000   
442.500000	0.570000   
443.000000	0.551000   
443.500000	0.655000   
444.000000	0.566999   
444.500000	0.638000   
445.000000	0.449000   
445.500000	0.727000   
446.000000	0.647000   
446.500000	0.656000   
447.000000	0.974000   
447.500000	0.937999   
448.000000	1.199000   
448.500000	0.685000   
449.000000	0.524000   
449.500000	0.908000   
450.000000	0.618000   
450.500000	0.916000   
451.000000	1.327000   
451.500000	0.603000   
452.000000	0.670000   
452.500000	0.996000   
453.000000	0.734000   
453.500000	0.681000   
454.000000	0.811000   
454.500000	0.933000   
455.000000	0.748000   
455.500000	0.495000   
456.000000	0.748000   
456.500000	0.799000   
457.000000	1.099000   
457.500000	0.801000   
458.000000	1.081000   
458.500000	1.184000   
459.000000	0.982000   
459.500000	1.226000   
460.000000	0.960000   
460.500000	1.110000   
461.000000	1.047000   
461.500000	1.074000   
462.000000	0.679000   
462.500000	0.831000   
463.000000	1.130000   
463.500000	0.803000   
464.000000	0.977000   
464.500000	0.958000   
465.000000	1.318000   
465.500000	1.336000   
466.000000	1.349000   
466.500000	1.221000   
467.000000	0.974000   
467.500000	1.026000   
468.000000	1.289000   
468.500000	1.383000   
469.000000	1.019000   
469.500000	1.347000   
470.000000	1.145000   
470.500000	1.071000   
471.000000	0.849000   
471.500000	1.153000   
472.000000	0.847000   
472.500000	1.037000   
473.000000	1.348000   
473.500000	1.039000   
474.000000	1.124000   
474.500000	1.301000   
475.000000	1.444000   
475.500000	1.614000   
476.000000	1.046000   
476.500000	1.247000   
477.000000	1.303000   
477.500000	1.103000   
478.000000	1.856000   
478.500000	1.603000   
479.000000	2.329000   
479.500000	1.575000   
480.000000	2.180000   
480.500000	2.043000   
481.000000	1.694000   
481.500000	2.182000   
482.000000	1.971000   
482.500000	2.763000   
483.000000	2.550000   
483.500000	2.016000   
484.000000	2.697000   
484.500000	3.105000   
485.000000	3.265000   
485.500000	3.154000   
486.000000	3.502000   
486.500000	3.444000   
487.000000	3.932000   
487.500000	4.628000   
488.000000	4.894000   
488.500000	5.392000   
489.000000	6.221000   
489.500000	5.686000   
490.000000	6.130000   
490.500000	7.709000   
491.000000	8.372000   
491.500000	9.159000   
492.000000	9.874000   
492.500000	11.016000  
493.000000	10.580000  
493.500000	13.382000  
494.000000	15.662000  
494.500000	15.466000  
495.000000	15.886000  
495.500000	19.603000  
496.000000	19.568000  
496.500000	22.947000  
497.000000	23.479000  
497.500000	28.282000  
498.000000	29.221000  
498.500000	32.070000  
499.000000	34.655000  
499.500000	38.097000  
500.000000	43.950000  
500.500000	45.955000  
501.000000	48.577000  
501.500000	53.854000  
502.000000	58.538000  
502.500000	62.910000  
503.000000	69.944999  
503.500000	70.861000  
504.000000	75.617000  
504.500000	84.280000  
505.000000	91.631000  
505.500000	98.502000  
506.000000	100.981000 
506.500000	109.039000 
507.000000	117.098000 
507.500000	125.312000 
508.000000	129.705000 
508.500000	135.441000 
509.000000	140.931000 
509.500000	151.721000 
510.000000	155.192000 
510.500000	161.565000 
511.000000	164.098000 
511.500000	180.925000 
512.000000	181.942000 
512.500000	185.801000 
513.000000	195.829000 
513.500000	198.777000 
514.000000	203.616000 
514.500000	205.613000 
515.000000	214.766000 
515.500000	212.257000 
516.000000	221.495000 
516.500000	219.347000 
517.000000	233.870000 
517.500000	218.814000 
518.000000	224.467000 
518.500000	227.184000 
519.000000	231.558000 
519.500000	233.235000 
520.000000	237.061000 
520.500000	236.510000 
521.000000	229.781000 
521.500000	229.439000 
522.000000	228.306000 
522.500000	225.147000 
523.000000	228.423000 
523.500000	226.016000 
524.000000	218.889000 
524.500000	220.030000 
525.000000	221.204000 
525.500000	218.116000 
526.000000	215.211000 
526.500000	209.441000 
527.000000	207.916000 
527.500000	203.851000 
528.000000	202.725000 
528.500000	198.615000 
529.000000	198.266000 
529.500000	198.384000 
530.000000	187.096000 
530.500000	183.212000 
531.000000	183.826000 
531.500000	173.196000 
532.000000	181.158000 
532.500000	182.489000 
533.000000	176.187000 
533.500000	170.248000 
534.000000	168.182000 
534.500000	163.496000 
535.000000	163.834000 
535.500000	159.098000 
536.000000	158.504000 
536.500000	158.469000 
537.000000	155.833000 
537.500000	148.322000 
538.000000	151.476000 
538.500000	150.320000 
539.000000	142.968000 
539.500000	141.684000 
540.000000	140.953000 
540.500000	133.915000 
541.000000	136.501000 
541.500000	134.246000 
542.000000	133.038000 
542.500000	130.506000 
543.000000	130.197000 
543.500000	128.712000 
544.000000	127.403000 
544.500000	125.029000 
545.000000	118.352000 
545.500000	119.362000 
546.000000	117.874000 
546.500000	114.649000 
547.000000	111.701000 
547.500000	118.646000 
548.000000	112.515000 
548.500000	111.098000 
549.000000	113.268000 
549.500000	108.259000 
550.000000	110.896000 
550.500000	105.565000 
551.000000	105.436000 
551.500000	104.078000 
552.000000	100.825000 
552.500000	98.989000  
553.000000	98.319999  
553.500000	97.712999  
554.000000	93.992999  
554.500000	91.959000  
555.000000	91.399000  
555.500000	94.261000  
556.000000	89.801000  
556.500000	89.871000  
557.000000	86.989000  
557.500000	88.318000  
558.000000	85.167000  
558.500000	82.414000  
559.000000	80.371000  
559.500000	89.456999  
560.000000	77.412000  
560.500000	77.662000  
561.000000	74.902000  
561.500000	76.029000  
562.000000	72.839000  
562.500000	73.418000  
563.000000	74.050000  
563.500000	69.596999  
564.000000	73.982000  
564.500000	68.087000  
565.000000	66.299000  
565.500000	66.997000  
566.000000	61.718000  
566.500000	64.843000  
567.000000	61.207000  
567.500000	62.631000  
568.000000	57.779000  
568.500000	57.001000  
569.000000	55.332000  
569.500000	55.658000  
570.000000	52.811000  
570.500000	51.137000  
571.000000	50.349000  
571.500000	49.682000  
572.000000	47.893000  
572.500000	47.365000  
573.000000	49.429000  
573.500000	48.868000  
574.000000	43.960000  
574.500000	42.595000  
575.000000	43.082000  
575.500000	43.161000  
576.000000	39.923000  
576.500000	42.949000  
577.000000	41.473000  
577.500000	38.065000  
578.000000	40.796000  
578.500000	38.855000  
579.000000	37.638000  
579.500000	35.915000  
580.000000	33.360000  
580.500000	35.016000  
581.000000	34.893000  
581.500000	33.924000  
582.000000	31.541000  
582.500000	33.504000  
583.000000	30.696000  
583.500000	31.774000  
584.000000	27.406000  
584.500000	29.868000  
585.000000	26.746000  
585.500000	26.553000  
586.000000	29.367000  
586.500000	27.966000  
587.000000	26.156000  
587.500000	29.975000  
588.000000	26.977000  
588.500000	26.068000  
589.000000	23.599000  
589.500000	25.077000  
590.000000	23.176000  
590.500000	23.316000  
591.000000	23.429000  
591.500000	25.386000  
592.000000	22.476000  
592.500000	20.935000  
593.000000	21.069000  
593.500000	19.888000  
594.000000	20.109000  
594.500000	18.958000  
595.000000	19.897000  
595.500000	19.420000  
596.000000	19.622000  
596.500000	19.491000  
597.000000	17.659000  
597.500000	17.283000  
598.000000	17.328000  
598.500000	17.138000  
599.000000	16.432000  
599.500000	16.713000  
600.000000	18.003000  
600.500000	16.642000  
601.000000	15.485000  
601.500000	14.517000  
602.000000	15.727000  
602.500000	16.634000  
603.000000	15.047000  
603.500000	14.526000  
604.000000	15.996000  
604.500000	14.018000  
605.000000	14.989000  
605.500000	12.573000  
606.000000	13.957000  
606.500000	13.911000  
607.000000	13.223000  
607.500000	12.047000  
608.000000	12.989000  
608.500000	13.382000  
609.000000	13.338000  
609.500000	12.436000  
610.000000	12.340000  
610.500000	12.642000  
611.000000	12.576000  
611.500000	11.538000  
612.000000	10.708000  
612.500000	10.648000  
613.000000	11.772000  
613.500000	10.344000  
614.000000	10.432000  
614.500000	10.257000  
615.000000	8.949999   
615.500000	10.485000  
616.000000	10.266000  
616.500000	9.121000   
617.000000	10.092000  
617.500000	10.206000  
618.000000	9.568000   
618.500000	8.898000   
619.000000	8.794000   
619.500000	8.959000   
620.000000	8.782000   
620.500000	8.941000   
621.000000	9.228999   
621.500000	8.547000   
622.000000	7.673000   
622.500000	7.840000   
623.000000	7.030000   
623.500000	7.511000   
624.000000	7.912000   
624.500000	8.029000   
625.000000	7.239000   
625.500000	6.461000   
626.000000	7.501000   
626.500000	6.180000   
627.000000	5.919000   
627.500000	5.979000   
628.000000	6.192000   
628.500000	5.445000   
629.000000	5.251000   
629.500000	5.952000   
630.000000	6.308000   
630.500000	6.027000   
631.000000	4.562000   
631.500000	5.945000   
632.000000	5.044000   
632.500000	4.848000   
633.000000	4.732000   
633.500000	3.923000   
634.000000	4.445000   
634.500000	4.004000   
635.000000	3.534000   
635.500000	4.407000   
636.000000	3.988000   
636.500000	4.081000   
637.000000	3.706000   
637.500000	3.853000   
638.000000	3.535000   
638.500000	3.796000   
639.000000	3.471000   
639.500000	3.581000   
640.000000	3.476000   
640.500000	3.860000   
641.000000	3.768000   
641.500000	3.103000   
642.000000	2.999000   
642.500000	2.824000   
643.000000	2.481000   
643.500000	3.149000   
644.000000	3.573000   
644.500000	2.771000   
645.000000	2.526000   
645.500000	2.884000   
646.000000	2.633000   
646.500000	2.733000   
647.000000	2.757000   
647.500000	2.432000   
648.000000	2.424000   
648.500000	2.357000   
649.000000	1.960000   
649.500000	1.838000   
650.000000	2.110000   
650.500000	1.891000   
651.000000	2.245000   
651.500000	1.911000   
652.000000	2.589000   
652.500000	2.187000   
653.000000	2.064000   
653.500000	1.793000   
654.000000	2.017000   
654.500000	1.862000   
655.000000	1.609000   
655.500000	2.298000   
656.000000	1.888000   
656.500000	1.880000   
657.000000	1.523000   
657.500000	2.941000   
658.000000	2.183000   
658.500000	1.551000   
659.000000	1.410000   
659.500000	2.175000   
660.000000	2.241000   
660.500000	1.456000   
661.000000	1.594000   
661.500000	2.030000   
662.000000	1.933000   
662.500000	1.572000   
663.000000	1.494000   
663.500000	1.580000   
664.000000	1.925000   
664.500000	1.915000   
665.000000	1.314000   
665.500000	1.703000   
666.000000	1.280000   
666.500000	1.527000   
667.000000	1.428000   
667.500000	1.297000   
668.000000	1.323000   
668.500000	1.351000   
669.000000	1.197000   
669.500000	1.083000   
670.000000	1.419000   
670.500000	1.272000   
671.000000	1.086000   
671.500000	1.038000   
672.000000	1.114000   
672.500000	1.151000   
673.000000	1.155000   
673.500000	1.105000   
674.000000	0.983000   
674.500000	1.210000   
675.000000	0.959000   
675.500000	1.640000   
676.000000	1.091000   
676.500000	1.153000   
677.000000	1.147000   
677.500000	0.592000   
678.000000	0.902000   
678.500000	1.082000   
679.000000	1.104000   
679.500000	1.035000   
680.000000	0.885000   
680.500000	1.011000   
681.000000	1.121000   
681.500000	0.935000   
682.000000	1.199000   
682.500000	0.974000   
683.000000	1.127000   
683.500000	0.773000   
684.000000	0.332000   
684.500000	0.769000   
685.000000	0.672000   
685.500000	0.624000   
686.000000	0.768000   
686.500000	0.703000   
687.000000	0.564999   
687.500000	0.768000   
688.000000	0.683000   
688.500000	0.721000   
689.000000	0.885000   
689.500000	0.779000   
690.000000	0.683000   
690.500000	0.676000   
691.000000	0.958000   
691.500000	1.125000   
692.000000	0.848000   
692.500000	0.791000   
693.000000	0.664000   
693.500000	0.412000   
694.000000	0.561000   
694.500000	0.665000   
695.000000	0.858000   
695.500000	0.845000   
696.000000	0.717000   
696.500000	0.966000   
697.000000	0.720000   
697.500000	0.411000   
698.000000	0.895000   
698.500000	0.379000   
699.000000	0.678000   
699.500000	0.588000   
700.000000	0.574000   
700.500000	0.561000   

