PE FL                   SPECTRUM    ASCII       PEDS        1.60        
  -1
DMB038.SP
23/03/01
17:53:39.00
23/03/01
17:54:40.00


700.500000
1









LS50-B
415.00
2.50
2.50
SCAN
1
20
100
100
0
400
0
1
0
1
7
ON
700 415 
1 0 0
#HDR
-1
-1
#GR
NM
INT 
0.00002384185791015625
0.0
380.000000
0.500000
642
8
205.970000
-0.935000
#DATA
380.000000	-0.179000  
380.500000	0.022000   
381.000000	0.000000   
381.500000	0.011000   
382.000000	0.106000   
382.500000	0.000000   
383.000000	0.069000   
383.500000	-0.055000  
384.000000	0.049000   
384.500000	0.000000   
385.000000	0.000000   
385.500000	0.185000   
386.000000	-0.103000  
386.500000	0.028000   
387.000000	0.008999   
387.500000	0.110000   
388.000000	0.340000   
388.500000	0.413000   
389.000000	0.090000   
389.500000	0.156000   
390.000000	0.057000   
390.500000	0.170000   
391.000000	0.070000   
391.500000	0.448000   
392.000000	0.263000   
392.500000	0.156000   
393.000000	0.172000   
393.500000	0.237000   
394.000000	0.167000   
394.500000	0.210000   
395.000000	0.056000   
395.500000	-0.111000  
396.000000	0.050000   
396.500000	0.033000   
397.000000	0.236000   
397.500000	0.336000   
398.000000	0.194000   
398.500000	0.245000   
399.000000	0.005000   
399.500000	0.179000   
400.000000	0.134000   
400.500000	0.066000   
401.000000	-0.116000  
401.500000	0.324000   
402.000000	0.280000   
402.500000	0.201000   
403.000000	-0.028000  
403.500000	0.330000   
404.000000	-0.015000  
404.500000	0.336000   
405.000000	0.338000   
405.500000	0.356000   
406.000000	0.323000   
406.500000	0.431000   
407.000000	0.529000   
407.500000	0.723000   
408.000000	1.347000   
408.500000	2.591000   
409.000000	5.097000   
409.500000	11.321000  
410.000000	19.795000  
410.500000	36.612000  
411.000000	59.558000  
411.500000	90.733000  
412.000000	129.908000 
412.500000	160.572000 
413.000000	190.143000 
413.500000	205.618000 
414.000000	205.970000 
414.500000	181.687000 
415.000000	148.616000 
415.500000	117.758000 
416.000000	88.682000  
416.500000	52.368000  
417.000000	34.041000  
417.500000	17.400000  
418.000000	9.382000   
418.500000	4.948000   
419.000000	2.491000   
419.500000	1.127000   
420.000000	1.039000   
420.500000	0.308000   
421.000000	0.340000   
421.500000	0.640000   
422.000000	0.238000   
422.500000	0.285000   
423.000000	0.178000   
423.500000	0.136000   
424.000000	0.037000   
424.500000	0.067000   
425.000000	0.232000   
425.500000	0.114000   
426.000000	0.310000   
426.500000	0.179000   
427.000000	0.244000   
427.500000	0.099000   
428.000000	0.182000   
428.500000	0.496000   
429.000000	0.250000   
429.500000	0.056000   
430.000000	0.215000   
430.500000	0.328000   
431.000000	-0.222000  
431.500000	0.056000   
432.000000	0.351000   
432.500000	0.159000   
433.000000	0.164000   
433.500000	-0.201000  
434.000000	0.401000   
434.500000	0.226000   
435.000000	0.084000   
435.500000	-0.385000  
436.000000	-0.276000  
436.500000	0.196000   
437.000000	-0.005000  
437.500000	0.351000   
438.000000	0.212000   
438.500000	-0.036000  
439.000000	0.036000   
439.500000	0.271000   
440.000000	-0.046000  
440.500000	0.327000   
441.000000	0.716000   
441.500000	0.191000   
442.000000	-0.081000  
442.500000	0.536000   
443.000000	0.917000   
443.500000	0.546000   
444.000000	0.090000   
444.500000	-0.199000  
445.000000	0.283000   
445.500000	0.278000   
446.000000	0.527000   
446.500000	0.077000   
447.000000	0.472000   
447.500000	-0.011000  
448.000000	0.331000   
448.500000	-0.542000  
449.000000	-0.856000  
449.500000	0.724000   
450.000000	-0.023000  
450.500000	-0.600000  
451.000000	0.333000   
451.500000	-0.521000  
452.000000	-0.935000  
452.500000	0.259000   
453.000000	0.539000   
453.500000	0.551000   
454.000000	0.848000   
454.500000	0.826000   
455.000000	1.195000   
455.500000	1.485000   
456.000000	0.579000   
456.500000	0.830000   
457.000000	-0.044000  
457.500000	0.355000   
458.000000	0.750000   
458.500000	0.691999   
459.000000	0.483000   
459.500000	-0.333000  
460.000000	0.665000   
460.500000	0.112000   
461.000000	0.175000   
461.500000	-0.193000  
462.000000	0.135000   
462.500000	0.042000   
463.000000	0.407000   
463.500000	0.757000   
464.000000	0.726000   
464.500000	0.275000   
465.000000	0.144000   
465.500000	0.457000   
466.000000	0.862000   
466.500000	0.084000   
467.000000	-0.334000  
467.500000	-0.703000  
468.000000	-0.513000  
468.500000	0.579000   
469.000000	0.766000   
469.500000	0.518000   
470.000000	0.160000   
470.500000	0.356000   
471.000000	0.528000   
471.500000	-0.011000  
472.000000	0.033000   
472.500000	0.024000   
473.000000	0.141000   
473.500000	-0.067000  
474.000000	0.645000   
474.500000	0.112000   
475.000000	0.538000   
475.500000	0.795000   
476.000000	0.384000   
476.500000	0.704000   
477.000000	0.766000   
477.500000	0.325000   
478.000000	0.800000   
478.500000	0.216000   
479.000000	-0.185000  
479.500000	0.564999   
480.000000	0.347000   
480.500000	0.529000   
481.000000	0.930000   
481.500000	0.182000   
482.000000	0.696000   
482.500000	1.136000   
483.000000	0.759000   
483.500000	0.424000   
484.000000	0.657000   
484.500000	1.054000   
485.000000	0.883000   
485.500000	1.573000   
486.000000	1.159000   
486.500000	1.715000   
487.000000	1.696000   
487.500000	1.994000   
488.000000	1.603000   
488.500000	1.711000   
489.000000	1.828000   
489.500000	1.939000   
490.000000	3.110000   
490.500000	2.534000   
491.000000	2.987000   
491.500000	2.249000   
492.000000	2.050000   
492.500000	2.362000   
493.000000	4.090000   
493.500000	4.043000   
494.000000	4.012000   
494.500000	4.703000   
495.000000	6.735000   
495.500000	4.758000   
496.000000	7.281000   
496.500000	7.448000   
497.000000	7.277000   
497.500000	7.886000   
498.000000	8.332000   
498.500000	9.140000   
499.000000	9.134000   
499.500000	13.225000  
500.000000	11.801000  
500.500000	13.806000  
501.000000	15.187000  
501.500000	16.510000  
502.000000	19.431000  
502.500000	18.738000  
503.000000	20.451000  
503.500000	20.729000  
504.000000	22.117000  
504.500000	23.492000  
505.000000	25.136000  
505.500000	29.694000  
506.000000	28.246000  
506.500000	32.027000  
507.000000	33.868000  
507.500000	34.535000  
508.000000	36.799000  
508.500000	38.022000  
509.000000	38.060000  
509.500000	42.942000  
510.000000	41.109000  
510.500000	43.043000  
511.000000	46.365000  
511.500000	50.720000  
512.000000	48.958000  
512.500000	51.585000  
513.000000	51.476000  
513.500000	55.173000  
514.000000	55.800000  
514.500000	56.056000  
515.000000	59.291000  
515.500000	59.303000  
516.000000	58.160000  
516.500000	58.560000  
517.000000	57.663000  
517.500000	60.423000  
518.000000	59.320000  
518.500000	57.816000  
519.000000	60.255000  
519.500000	58.578000  
520.000000	63.205000  
520.500000	60.785000  
521.000000	62.134000  
521.500000	60.970000  
522.000000	59.360000  
522.500000	59.210000  
523.000000	59.798000  
523.500000	54.618000  
524.000000	61.020000  
524.500000	59.188000  
525.000000	54.508000  
525.500000	56.615000  
526.000000	54.861000  
526.500000	55.333000  
527.000000	54.320000  
527.500000	55.448000  
528.000000	51.852000  
528.500000	49.883000  
529.000000	50.805000  
529.500000	49.616000  
530.000000	50.042000  
530.500000	50.068000  
531.000000	48.046000  
531.500000	47.419000  
532.000000	47.531000  
532.500000	46.283000  
533.000000	46.169000  
533.500000	42.516000  
534.000000	43.143000  
534.500000	44.367000  
535.000000	41.773000  
535.500000	41.661000  
536.000000	39.272000  
536.500000	40.023000  
537.000000	39.234000  
537.500000	39.684000  
538.000000	39.224000  
538.500000	38.123000  
539.000000	37.285000  
539.500000	37.570000  
540.000000	36.430000  
540.500000	35.350000  
541.000000	35.627000  
541.500000	34.472000  
542.000000	35.161000  
542.500000	34.156000  
543.000000	34.690000  
543.500000	34.337000  
544.000000	32.516000  
544.500000	31.350000  
545.000000	31.205000  
545.500000	31.110000  
546.000000	31.244000  
546.500000	30.627000  
547.000000	29.979000  
547.500000	30.294000  
548.000000	31.141000  
548.500000	30.505000  
549.000000	27.291000  
549.500000	28.889000  
550.000000	27.621000  
550.500000	27.551000  
551.000000	25.139000  
551.500000	27.298000  
552.000000	25.851000  
552.500000	26.083000  
553.000000	24.877000  
553.500000	25.952000  
554.000000	25.141000  
554.500000	24.435000  
555.000000	24.354000  
555.500000	24.813000  
556.000000	24.442000  
556.500000	23.238000  
557.000000	24.145000  
557.500000	22.974000  
558.000000	25.404000  
558.500000	21.370000  
559.000000	20.245000  
559.500000	19.588000  
560.000000	21.544000  
560.500000	21.780000  
561.000000	20.704000  
561.500000	18.745000  
562.000000	19.575000  
562.500000	19.661000  
563.000000	20.328000  
563.500000	18.125000  
564.000000	16.869000  
564.500000	18.473000  
565.000000	17.644000  
565.500000	16.845000  
566.000000	16.676000  
566.500000	15.298000  
567.000000	15.599000  
567.500000	17.324000  
568.000000	14.451000  
568.500000	15.438000  
569.000000	15.430000  
569.500000	15.265000  
570.000000	14.278000  
570.500000	13.318000  
571.000000	13.969000  
571.500000	13.509000  
572.000000	11.832000  
572.500000	12.369000  
573.000000	12.290000  
573.500000	11.625000  
574.000000	12.401000  
574.500000	10.884000  
575.000000	10.849000  
575.500000	11.782000  
576.000000	11.675000  
576.500000	10.802000  
577.000000	10.703000  
577.500000	11.130000  
578.000000	10.016000  
578.500000	11.303000  
579.000000	10.836000  
579.500000	10.235000  
580.000000	9.843000   
580.500000	9.172000   
581.000000	10.240000  
581.500000	8.502000   
582.000000	7.612000   
582.500000	8.179000   
583.000000	8.227000   
583.500000	7.143000   
584.000000	7.545000   
584.500000	8.441000   
585.000000	7.913000   
585.500000	8.404000   
586.000000	7.611000   
586.500000	7.161000   
587.000000	7.710000   
587.500000	7.437000   
588.000000	5.899000   
588.500000	5.774000   
589.000000	7.057000   
589.500000	7.186000   
590.000000	5.749000   
590.500000	5.813000   
591.000000	6.565000   
591.500000	7.067000   
592.000000	6.704000   
592.500000	5.425000   
593.000000	5.397000   
593.500000	6.279000   
594.000000	6.179000   
594.500000	7.095000   
595.000000	5.269000   
595.500000	5.983000   
596.000000	5.453000   
596.500000	4.940000   
597.000000	4.972000   
597.500000	4.621000   
598.000000	5.655000   
598.500000	4.945000   
599.000000	3.746000   
599.500000	4.074000   
600.000000	4.563000   
600.500000	4.471000   
601.000000	3.794000   
601.500000	4.057000   
602.000000	3.837000   
602.500000	3.723000   
603.000000	3.618000   
603.500000	4.534000   
604.000000	4.366000   
604.500000	4.039000   
605.000000	4.029000   
605.500000	2.952000   
606.000000	3.620000   
606.500000	3.955000   
607.000000	4.324000   
607.500000	4.113000   
608.000000	3.896000   
608.500000	4.253000   
609.000000	4.258000   
609.500000	2.836000   
610.000000	3.421000   
610.500000	2.645000   
611.000000	2.947000   
611.500000	3.745000   
612.000000	2.892000   
612.500000	3.288000   
613.000000	2.863000   
613.500000	3.270000   
614.000000	2.698000   
614.500000	2.695000   
615.000000	2.998000   
615.500000	2.921000   
616.000000	3.480000   
616.500000	2.482000   
617.000000	2.787000   
617.500000	2.634000   
618.000000	3.185000   
618.500000	3.254000   
619.000000	2.049000   
619.500000	2.483000   
620.000000	2.448000   
620.500000	2.658000   
621.000000	2.602000   
621.500000	2.257000   
622.000000	2.378000   
622.500000	1.976000   
623.000000	2.064000   
623.500000	2.459000   
624.000000	2.223000   
624.500000	1.763000   
625.000000	1.830000   
625.500000	2.098000   
626.000000	1.488000   
626.500000	1.248000   
627.000000	1.758000   
627.500000	1.563000   
628.000000	2.224000   
628.500000	2.001000   
629.000000	0.706000   
629.500000	1.655000   
630.000000	1.804000   
630.500000	1.888000   
631.000000	1.108000   
631.500000	1.108000   
632.000000	1.577000   
632.500000	1.146000   
633.000000	1.436000   
633.500000	0.855000   
634.000000	1.228000   
634.500000	0.585000   
635.000000	1.033000   
635.500000	1.308000   
636.000000	0.952000   
636.500000	0.740000   
637.000000	0.663000   
637.500000	1.886000   
638.000000	0.915000   
638.500000	0.723000   
639.000000	1.385000   
639.500000	0.786000   
640.000000	1.037000   
640.500000	1.197000   
641.000000	1.070000   
641.500000	0.950000   
642.000000	0.407000   
642.500000	0.705000   
643.000000	1.157000   
643.500000	1.172000   
644.000000	0.604000   
644.500000	1.138000   
645.000000	0.770000   
645.500000	0.720000   
646.000000	0.780000   
646.500000	0.920000   
647.000000	0.620000   
647.500000	0.248000   
648.000000	1.239000   
648.500000	0.854000   
649.000000	0.987000   
649.500000	1.012000   
650.000000	1.183000   
650.500000	0.850000   
651.000000	0.506000   
651.500000	0.849000   
652.000000	0.231000   
652.500000	0.495000   
653.000000	0.724000   
653.500000	0.926000   
654.000000	0.660000   
654.500000	0.890000   
655.000000	1.131000   
655.500000	0.879000   
656.000000	0.299000   
656.500000	0.336000   
657.000000	0.566999   
657.500000	0.494000   
658.000000	0.562000   
658.500000	0.583000   
659.000000	0.636000   
659.500000	0.681000   
660.000000	0.367000   
660.500000	0.426000   
661.000000	0.504000   
661.500000	0.792000   
662.000000	0.377000   
662.500000	0.853000   
663.000000	0.742000   
663.500000	0.309000   
664.000000	0.648000   
664.500000	0.635000   
665.000000	0.951000   
665.500000	0.373000   
666.000000	0.590000   
666.500000	0.556000   
667.000000	0.726000   
667.500000	0.490000   
668.000000	0.683000   
668.500000	0.465000   
669.000000	0.370000   
669.500000	0.546000   
670.000000	0.501000   
670.500000	0.536000   
671.000000	0.275000   
671.500000	0.465000   
672.000000	0.562000   
672.500000	0.388000   
673.000000	0.335000   
673.500000	0.780000   
674.000000	-0.058000  
674.500000	0.503000   
675.000000	0.400000   
675.500000	0.201000   
676.000000	0.338000   
676.500000	0.459000   
677.000000	0.182000   
677.500000	0.571000   
678.000000	0.154000   
678.500000	0.259000   
679.000000	0.159000   
679.500000	0.810000   
680.000000	0.480000   
680.500000	0.116000   
681.000000	0.228000   
681.500000	-0.554000  
682.000000	0.374000   
682.500000	0.122000   
683.000000	0.418000   
683.500000	0.630000   
684.000000	0.439000   
684.500000	0.371000   
685.000000	0.428000   
685.500000	0.114000   
686.000000	0.298000   
686.500000	0.332000   
687.000000	0.291000   
687.500000	0.586000   
688.000000	0.170000   
688.500000	0.184000   
689.000000	0.196000   
689.500000	-0.011000  
690.000000	0.412000   
690.500000	0.323000   
691.000000	0.224000   
691.500000	0.136000   
692.000000	-0.041000  
692.500000	0.202000   
693.000000	0.059000   
693.500000	0.365000   
694.000000	0.006000   
694.500000	-0.143000  
695.000000	0.051000   
695.500000	0.238000   
696.000000	0.220000   
696.500000	0.176000   
697.000000	0.480000   
697.500000	0.316000   
698.000000	0.028000   
698.500000	0.264000   
699.000000	0.053000   
699.500000	0.187000   
700.000000	0.178000   
700.500000	0.170000   

