PE FL                   SPECTRUM    ASCII       PEDS        1.60        
  -1
DMB030.SP
23/03/01
17:27:34.00
23/03/01
17:28:36.00


700.500000
1









LS50-B
415.00
2.50
2.50
SCAN
1
20
100
100
0
400
0
1
0
1
7
ON
700 415 
1 0 0
#HDR
-1
-1
#GR
NM
INT 
0.00002384185791015625
0.0
380.000000
0.500000
642
8
269.781000
-0.134000
#DATA
380.000000	0.001000   
380.500000	0.089000   
381.000000	0.102000   
381.500000	-0.134000  
382.000000	0.102000   
382.500000	0.236000   
383.000000	0.293000   
383.500000	0.233000   
384.000000	0.098000   
384.500000	0.169000   
385.000000	0.070000   
385.500000	0.133000   
386.000000	0.042000   
386.500000	0.138000   
387.000000	0.044000   
387.500000	0.186000   
388.000000	0.042000   
388.500000	0.000000   
389.000000	0.231000   
389.500000	0.066000   
390.000000	0.223000   
390.500000	0.271000   
391.000000	0.131000   
391.500000	0.234000   
392.000000	0.156000   
392.500000	0.231000   
393.000000	0.210000   
393.500000	0.000000   
394.000000	0.130000   
394.500000	0.107000   
395.000000	0.224000   
395.500000	0.435000   
396.000000	0.191000   
396.500000	0.146000   
397.000000	0.058000   
397.500000	0.000000   
398.000000	0.145000   
398.500000	0.056000   
399.000000	0.055000   
399.500000	0.055000   
400.000000	0.108000   
400.500000	0.182000   
401.000000	0.107000   
401.500000	0.251000   
402.000000	0.041000   
402.500000	0.242000   
403.000000	0.241000   
403.500000	0.185000   
404.000000	0.154000   
404.500000	0.056000   
405.000000	-0.060000  
405.500000	0.011000   
406.000000	0.190000   
406.500000	0.271000   
407.000000	0.111000   
407.500000	0.110000   
408.000000	0.214000   
408.500000	0.360000   
409.000000	0.564999   
409.500000	1.192000   
410.000000	2.470000   
410.500000	3.914000   
411.000000	6.769000   
411.500000	10.332000  
412.000000	14.804000  
412.500000	22.527000  
413.000000	28.440000  
413.500000	31.751000  
414.000000	35.010000  
414.500000	32.868000  
415.000000	25.864000  
415.500000	22.059000  
416.000000	17.905000  
416.500000	11.606000  
417.000000	8.589000   
417.500000	4.623000   
418.000000	2.436000   
418.500000	1.500000   
419.000000	0.982000   
419.500000	0.112000   
420.000000	0.505000   
420.500000	0.395000   
421.000000	0.375000   
421.500000	0.630000   
422.000000	-0.047000  
422.500000	0.246000   
423.000000	0.463000   
423.500000	0.323000   
424.000000	0.283000   
424.500000	0.476000   
425.000000	0.301000   
425.500000	0.430000   
426.000000	0.293000   
426.500000	0.000000   
427.000000	0.286000   
427.500000	0.175000   
428.000000	0.226000   
428.500000	0.235000   
429.000000	0.464000   
429.500000	0.246000   
430.000000	0.228000   
430.500000	0.396000   
431.000000	0.190000   
431.500000	0.249000   
432.000000	0.385000   
432.500000	0.392000   
433.000000	-0.062000  
433.500000	0.183000   
434.000000	0.388000   
434.500000	0.420000   
435.000000	0.525000   
435.500000	0.432000   
436.000000	0.460000   
436.500000	0.433000   
437.000000	0.678000   
437.500000	0.514000   
438.000000	0.336000   
438.500000	0.324000   
439.000000	0.758000   
439.500000	0.359000   
440.000000	0.805000   
440.500000	0.831000   
441.000000	0.539000   
441.500000	0.504000   
442.000000	0.567999   
442.500000	0.551000   
443.000000	0.719000   
443.500000	0.865000   
444.000000	0.830000   
444.500000	0.754000   
445.000000	0.919000   
445.500000	0.895000   
446.000000	0.686000   
446.500000	0.546000   
447.000000	0.540000   
447.500000	0.451000   
448.000000	0.654000   
448.500000	0.606000   
449.000000	0.562000   
449.500000	1.099000   
450.000000	0.908000   
450.500000	0.828000   
451.000000	0.845000   
451.500000	0.726000   
452.000000	0.805000   
452.500000	0.911000   
453.000000	1.230000   
453.500000	1.036000   
454.000000	0.812000   
454.500000	0.941999   
455.000000	0.707000   
455.500000	0.904000   
456.000000	1.464000   
456.500000	1.054000   
457.000000	0.822000   
457.500000	0.962000   
458.000000	1.199000   
458.500000	1.107000   
459.000000	0.996000   
459.500000	1.064000   
460.000000	1.121000   
460.500000	1.113000   
461.000000	0.764000   
461.500000	0.860000   
462.000000	0.962000   
462.500000	0.923000   
463.000000	1.097000   
463.500000	1.229000   
464.000000	1.253000   
464.500000	0.870000   
465.000000	1.067000   
465.500000	1.481000   
466.000000	1.226000   
466.500000	1.120000   
467.000000	1.430000   
467.500000	0.961000   
468.000000	0.977000   
468.500000	1.183000   
469.000000	1.594000   
469.500000	0.946000   
470.000000	1.427000   
470.500000	1.372000   
471.000000	1.296000   
471.500000	1.213000   
472.000000	1.132000   
472.500000	1.380000   
473.000000	1.257000   
473.500000	1.382000   
474.000000	1.353000   
474.500000	1.268000   
475.000000	1.500000   
475.500000	1.924000   
476.000000	1.350000   
476.500000	1.710000   
477.000000	1.848000   
477.500000	1.269000   
478.000000	1.595000   
478.500000	1.697000   
479.000000	2.090000   
479.500000	2.196000   
480.000000	2.176000   
480.500000	2.588000   
481.000000	2.638000   
481.500000	2.172000   
482.000000	2.557000   
482.500000	2.919000   
483.000000	3.260000   
483.500000	2.995000   
484.000000	3.309000   
484.500000	3.192000   
485.000000	2.912000   
485.500000	4.288000   
486.000000	4.281000   
486.500000	4.488000   
487.000000	4.696000   
487.500000	5.572000   
488.000000	5.937000   
488.500000	5.890000   
489.000000	6.179000   
489.500000	6.732000   
490.000000	7.914000   
490.500000	9.212000   
491.000000	9.516999   
491.500000	9.773999   
492.000000	11.170000  
492.500000	12.988000  
493.000000	13.902000  
493.500000	15.127000  
494.000000	18.233000  
494.500000	18.102000  
495.000000	19.020000  
495.500000	20.003000  
496.000000	24.250000  
496.500000	25.777000  
497.000000	29.427000  
497.500000	33.398000  
498.000000	32.980000  
498.500000	37.846000  
499.000000	41.866000  
499.500000	43.943000  
500.000000	49.745000  
500.500000	52.592000  
501.000000	56.703000  
501.500000	59.930000  
502.000000	68.877000  
502.500000	74.322000  
503.000000	79.080000  
503.500000	85.649000  
504.000000	90.440000  
504.500000	96.206000  
505.000000	104.926000 
505.500000	106.877000 
506.000000	116.431000 
506.500000	130.153000 
507.000000	130.742000 
507.500000	139.985000 
508.000000	147.035000 
508.500000	156.435000 
509.000000	161.481000 
509.500000	182.528000 
510.000000	177.599000 
510.500000	186.908000 
511.000000	191.815000 
511.500000	202.554000 
512.000000	209.827000 
512.500000	216.008000 
513.000000	231.548000 
513.500000	229.383000 
514.000000	246.211000 
514.500000	242.838000 
515.000000	249.873000 
515.500000	250.797000 
516.000000	255.013000 
516.500000	261.341000 
517.000000	259.821000 
517.500000	269.781000 
518.000000	260.883000 
518.500000	262.295000 
519.000000	262.175000 
519.500000	264.398000 
520.000000	268.567000 
520.500000	263.659000 
521.000000	267.452000 
521.500000	258.573000 
522.000000	254.349000 
522.500000	262.313000 
523.000000	264.380000 
523.500000	259.714000 
524.000000	251.929000 
524.500000	251.967000 
525.000000	245.540000 
525.500000	252.627000 
526.000000	244.118000 
526.500000	239.310000 
527.000000	240.467000 
527.500000	230.101000 
528.000000	234.834000 
528.500000	230.992000 
529.000000	217.624000 
529.500000	223.182000 
530.000000	214.035000 
530.500000	216.208000 
531.000000	218.278000 
531.500000	209.955000 
532.000000	211.143000 
532.500000	202.600000 
533.000000	193.889000 
533.500000	194.860000 
534.000000	191.975000 
534.500000	190.525000 
535.000000	180.718000 
535.500000	183.978000 
536.000000	175.320000 
536.500000	181.787000 
537.000000	182.386000 
537.500000	176.524000 
538.000000	177.562000 
538.500000	166.689000 
539.000000	169.707000 
539.500000	156.056000 
540.000000	162.017000 
540.500000	155.291000 
541.000000	150.760000 
541.500000	155.258000 
542.000000	152.425000 
542.500000	150.731000 
543.000000	148.267000 
543.500000	148.615000 
544.000000	144.948000 
544.500000	138.522000 
545.000000	138.904000 
545.500000	146.456000 
546.000000	132.375000 
546.500000	132.412000 
547.000000	132.843000 
547.500000	131.677000 
548.000000	131.200000 
548.500000	126.590000 
549.000000	125.510000 
549.500000	124.790000 
550.000000	122.283000 
550.500000	118.155000 
551.000000	119.553000 
551.500000	111.723000 
552.000000	112.652000 
552.500000	113.842000 
553.000000	110.318000 
553.500000	108.039000 
554.000000	112.441000 
554.500000	109.022000 
555.000000	103.005000 
555.500000	101.502000 
556.000000	101.526000 
556.500000	100.525000 
557.000000	99.494000  
557.500000	103.014000 
558.000000	97.768000  
558.500000	95.569000  
559.000000	91.912000  
559.500000	92.774000  
560.000000	92.037000  
560.500000	89.447000  
561.000000	83.382000  
561.500000	85.150000  
562.000000	84.989999  
562.500000	81.508000  
563.000000	78.403000  
563.500000	77.986999  
564.000000	77.971999  
564.500000	76.807000  
565.000000	74.924000  
565.500000	70.767000  
566.000000	71.709999  
566.500000	67.117999  
567.000000	68.455000  
567.500000	65.376000  
568.000000	65.371000  
568.500000	62.935000  
569.000000	62.589000  
569.500000	62.087000  
570.000000	60.428000  
570.500000	58.874000  
571.000000	56.473000  
571.500000	59.522000  
572.000000	54.546000  
572.500000	53.449000  
573.000000	51.159000  
573.500000	52.220000  
574.000000	49.675000  
574.500000	50.390000  
575.000000	49.713000  
575.500000	48.446000  
576.000000	46.028000  
576.500000	45.008000  
577.000000	43.064000  
577.500000	42.233000  
578.000000	43.412000  
578.500000	41.304000  
579.000000	41.285000  
579.500000	40.886000  
580.000000	38.017000  
580.500000	39.180000  
581.000000	35.464000  
581.500000	35.590000  
582.000000	36.136000  
582.500000	33.605000  
583.000000	33.905000  
583.500000	31.766000  
584.000000	32.771000  
584.500000	32.312000  
585.000000	30.258000  
585.500000	29.854000  
586.000000	31.203000  
586.500000	29.111000  
587.000000	31.504000  
587.500000	26.371000  
588.000000	27.850000  
588.500000	28.438000  
589.000000	28.038000  
589.500000	29.048000  
590.000000	24.154000  
590.500000	24.640000  
591.000000	26.170000  
591.500000	25.475000  
592.000000	24.061000  
592.500000	24.563000  
593.000000	24.615000  
593.500000	22.553000  
594.000000	23.472000  
594.500000	22.863000  
595.000000	23.759000  
595.500000	22.482000  
596.000000	20.829000  
596.500000	20.360000  
597.000000	18.564000  
597.500000	18.230000  
598.000000	19.716000  
598.500000	20.417000  
599.000000	18.658000  
599.500000	20.133000  
600.000000	17.636000  
600.500000	17.298000  
601.000000	19.270000  
601.500000	18.233000  
602.000000	17.051000  
602.500000	17.100000  
603.000000	17.091000  
603.500000	16.996000  
604.000000	17.276000  
604.500000	15.535000  
605.000000	16.448000  
605.500000	15.753000  
606.000000	15.272000  
606.500000	15.107000  
607.000000	13.836000  
607.500000	12.710000  
608.000000	13.926000  
608.500000	14.723000  
609.000000	14.396000  
609.500000	13.573000  
610.000000	12.763000  
610.500000	12.800000  
611.000000	13.885000  
611.500000	13.916000  
612.000000	12.783000  
612.500000	11.732000  
613.000000	10.418000  
613.500000	11.795000  
614.000000	10.632000  
614.500000	11.628000  
615.000000	10.055000  
615.500000	13.239000  
616.000000	11.083000  
616.500000	10.210000  
617.000000	9.856000   
617.500000	7.900000   
618.000000	10.461000  
618.500000	9.977000   
619.000000	11.588000  
619.500000	8.628000   
620.000000	8.305000   
620.500000	9.020000   
621.000000	8.085000   
621.500000	8.077000   
622.000000	8.683999   
622.500000	8.590999   
623.000000	8.401000   
623.500000	9.289000   
624.000000	8.320000   
624.500000	7.922000   
625.000000	7.971000   
625.500000	7.199000   
626.000000	7.179000   
626.500000	7.004000   
627.000000	6.573000   
627.500000	7.661000   
628.000000	6.436000   
628.500000	6.847000   
629.000000	6.119000   
629.500000	6.196000   
630.000000	6.451000   
630.500000	6.033000   
631.000000	5.251000   
631.500000	6.018000   
632.000000	5.349000   
632.500000	4.491000   
633.000000	4.916000   
633.500000	6.376000   
634.000000	4.937000   
634.500000	4.891000   
635.000000	4.452000   
635.500000	3.978000   
636.000000	4.672000   
636.500000	4.859000   
637.000000	4.070000   
637.500000	4.184000   
638.000000	4.244000   
638.500000	3.663000   
639.000000	3.161000   
639.500000	4.377000   
640.000000	3.479000   
640.500000	3.934000   
641.000000	3.860000   
641.500000	4.008000   
642.000000	3.952000   
642.500000	3.838000   
643.000000	3.708000   
643.500000	3.088000   
644.000000	3.035000   
644.500000	3.007000   
645.000000	3.604000   
645.500000	2.732000   
646.000000	3.747000   
646.500000	3.252000   
647.000000	3.266000   
647.500000	3.135000   
648.000000	2.882000   
648.500000	2.475000   
649.000000	2.645000   
649.500000	2.551000   
650.000000	2.863000   
650.500000	2.142000   
651.000000	1.780000   
651.500000	2.396000   
652.000000	2.642000   
652.500000	2.814000   
653.000000	3.052000   
653.500000	2.180000   
654.000000	2.452000   
654.500000	1.633000   
655.000000	2.415000   
655.500000	2.981000   
656.000000	3.305000   
656.500000	2.255000   
657.000000	2.397000   
657.500000	1.930000   
658.000000	2.527000   
658.500000	2.265000   
659.000000	2.321000   
659.500000	1.906000   
660.000000	2.120000   
660.500000	1.679000   
661.000000	1.805000   
661.500000	1.579000   
662.000000	1.565000   
662.500000	1.782000   
663.000000	1.998000   
663.500000	1.971000   
664.000000	1.815000   
664.500000	2.102000   
665.000000	1.746000   
665.500000	1.325000   
666.000000	1.330000   
666.500000	1.715000   
667.000000	1.427000   
667.500000	1.103000   
668.000000	1.277000   
668.500000	1.393000   
669.000000	1.402000   
669.500000	1.029000   
670.000000	1.226000   
670.500000	1.125000   
671.000000	1.084000   
671.500000	1.316000   
672.000000	1.545000   
672.500000	1.185000   
673.000000	0.951000   
673.500000	1.333000   
674.000000	1.092000   
674.500000	0.919000   
675.000000	1.478000   
675.500000	1.303000   
676.000000	1.364000   
676.500000	1.028000   
677.000000	1.021000   
677.500000	0.952000   
678.000000	1.039000   
678.500000	0.853000   
679.000000	1.244000   
679.500000	0.999000   
680.000000	1.163000   
680.500000	1.082000   
681.000000	1.168000   
681.500000	1.253000   
682.000000	0.466000   
682.500000	0.774000   
683.000000	0.891000   
683.500000	1.042000   
684.000000	0.991000   
684.500000	1.231000   
685.000000	0.689999   
685.500000	0.939999   
686.000000	0.751000   
686.500000	0.941999   
687.000000	0.784000   
687.500000	1.075000   
688.000000	1.031000   
688.500000	0.616000   
689.000000	0.671000   
689.500000	0.586000   
690.000000	0.710000   
690.500000	0.594000   
691.000000	0.920000   
691.500000	0.756000   
692.000000	0.974000   
692.500000	0.634000   
693.000000	0.577000   
693.500000	0.970000   
694.000000	0.942999   
694.500000	0.839000   
695.000000	0.483000   
695.500000	0.420000   
696.000000	0.653000   
696.500000	0.879000   
697.000000	0.674000   
697.500000	0.675000   
698.000000	0.586000   
698.500000	0.408000   
699.000000	0.601000   
699.500000	0.446000   
700.000000	0.557000   
700.500000	0.667000   

