PE FL                   SPECTRUM    ASCII       PEDS        1.60        
  -1
DMB018.SP
23/03/01
16:56:22.00
23/03/01
16:57:23.00


700.500000
1









LS50-B
415.00
2.50
2.50
SCAN
1
20
100
100
0
400
0
1
0
1
7
ON
700 415 
1 0 0
#HDR
-1
-1
#GR
NM
INT 
0.00002384185791015625
0.0
380.000000
0.500000
642
8
549.946000
0.029000
#DATA
380.000000	0.382000   
380.500000	0.352000   
381.000000	0.265000   
381.500000	0.276000   
382.000000	0.120000   
382.500000	0.190000   
383.000000	0.287000   
383.500000	0.310000   
384.000000	0.156000   
384.500000	0.305000   
385.000000	0.320000   
385.500000	0.109000   
386.000000	0.189000   
386.500000	0.122000   
387.000000	0.229000   
387.500000	0.235000   
388.000000	0.311000   
388.500000	0.212000   
389.000000	0.152000   
389.500000	0.175000   
390.000000	0.163000   
390.500000	0.264000   
391.000000	0.029000   
391.500000	0.110000   
392.000000	0.262000   
392.500000	0.122000   
393.000000	0.248000   
393.500000	0.414000   
394.000000	0.255000   
394.500000	0.279000   
395.000000	0.429000   
395.500000	0.360000   
396.000000	0.247000   
396.500000	0.095000   
397.000000	0.302000   
397.500000	0.111000   
398.000000	0.434000   
398.500000	0.259000   
399.000000	0.286000   
399.500000	0.608000   
400.000000	0.321000   
400.500000	0.346000   
401.000000	0.269000   
401.500000	0.238000   
402.000000	0.207000   
402.500000	0.292000   
403.000000	0.171000   
403.500000	0.445000   
404.000000	0.372000   
404.500000	0.380000   
405.000000	0.475000   
405.500000	0.379000   
406.000000	0.307000   
406.500000	0.584000   
407.000000	0.508000   
407.500000	0.759000   
408.000000	0.757000   
408.500000	0.961000   
409.000000	1.519000   
409.500000	4.961000   
410.000000	6.963000   
410.500000	12.808000  
411.000000	23.163000  
411.500000	35.647000  
412.000000	51.363000  
412.500000	70.598000  
413.000000	87.555000  
413.500000	100.513000 
414.000000	104.019000 
414.500000	98.325999  
415.000000	83.992999  
415.500000	67.720000  
416.000000	51.697000  
416.500000	33.329000  
417.000000	20.653000  
417.500000	10.301000  
418.000000	6.796000   
418.500000	2.924000   
419.000000	1.281000   
419.500000	0.779000   
420.000000	0.723000   
420.500000	0.629000   
421.000000	0.776000   
421.500000	0.612000   
422.000000	0.540000   
422.500000	0.421000   
423.000000	0.610000   
423.500000	0.794000   
424.000000	0.569000   
424.500000	0.629000   
425.000000	0.644000   
425.500000	0.527000   
426.000000	0.618000   
426.500000	0.454000   
427.000000	0.377000   
427.500000	0.847000   
428.000000	0.713000   
428.500000	0.380000   
429.000000	0.612000   
429.500000	0.732000   
430.000000	0.742000   
430.500000	0.768000   
431.000000	0.623000   
431.500000	0.679000   
432.000000	0.588000   
432.500000	0.708000   
433.000000	0.863000   
433.500000	0.934000   
434.000000	1.294000   
434.500000	0.829000   
435.000000	0.760000   
435.500000	0.986000   
436.000000	0.825000   
436.500000	0.842000   
437.000000	0.739000   
437.500000	0.970000   
438.000000	1.316000   
438.500000	1.085000   
439.000000	0.988000   
439.500000	1.028000   
440.000000	0.782000   
440.500000	1.123000   
441.000000	0.884000   
441.500000	1.247000   
442.000000	1.005000   
442.500000	1.249000   
443.000000	1.262000   
443.500000	1.859000   
444.000000	1.605000   
444.500000	1.601000   
445.000000	1.293000   
445.500000	1.485000   
446.000000	1.504000   
446.500000	1.787000   
447.000000	1.831000   
447.500000	1.436000   
448.000000	1.558000   
448.500000	1.555000   
449.000000	1.971000   
449.500000	2.019000   
450.000000	1.958000   
450.500000	1.742000   
451.000000	2.222000   
451.500000	1.712000   
452.000000	2.282000   
452.500000	2.035000   
453.000000	2.516000   
453.500000	1.896000   
454.000000	1.758000   
454.500000	1.632000   
455.000000	2.130000   
455.500000	1.979000   
456.000000	1.382000   
456.500000	1.707000   
457.000000	2.306000   
457.500000	2.101000   
458.000000	2.451000   
458.500000	1.830000   
459.000000	2.529000   
459.500000	2.438000   
460.000000	2.171000   
460.500000	2.595000   
461.000000	2.619000   
461.500000	2.379000   
462.000000	2.570000   
462.500000	1.922000   
463.000000	2.290000   
463.500000	2.442000   
464.000000	2.263000   
464.500000	2.500000   
465.000000	2.285000   
465.500000	2.458000   
466.000000	2.821000   
466.500000	2.563000   
467.000000	2.649000   
467.500000	2.855000   
468.000000	3.567000   
468.500000	2.450000   
469.000000	2.584000   
469.500000	2.219000   
470.000000	2.694000   
470.500000	2.974000   
471.000000	2.566000   
471.500000	2.681000   
472.000000	2.384000   
472.500000	3.036000   
473.000000	3.245000   
473.500000	2.872000   
474.000000	3.331000   
474.500000	2.836000   
475.000000	3.345000   
475.500000	3.452000   
476.000000	3.600000   
476.500000	3.462000   
477.000000	3.910000   
477.500000	4.496000   
478.000000	3.796000   
478.500000	4.160000   
479.000000	3.380000   
479.500000	5.086000   
480.000000	4.546000   
480.500000	4.414000   
481.000000	4.565000   
481.500000	6.545000   
482.000000	5.549000   
482.500000	6.282000   
483.000000	7.775000   
483.500000	6.050000   
484.000000	7.718000   
484.500000	7.422000   
485.000000	8.042000   
485.500000	8.554000   
486.000000	9.792999   
486.500000	11.089000  
487.000000	11.638000  
487.500000	12.178000  
488.000000	11.993000  
488.500000	13.981000  
489.000000	15.696000  
489.500000	17.919000  
490.000000	18.816000  
490.500000	21.744000  
491.000000	23.218000  
491.500000	24.572000  
492.000000	26.998000  
492.500000	30.339000  
493.000000	31.793000  
493.500000	34.797000  
494.000000	36.726000  
494.500000	39.755000  
495.000000	44.238000  
495.500000	47.619000  
496.000000	54.565000  
496.500000	58.619000  
497.000000	62.387000  
497.500000	70.614999  
498.000000	74.031000  
498.500000	85.930000  
499.000000	95.051000  
499.500000	97.843000  
500.000000	107.748000 
500.500000	118.646000 
501.000000	126.992000 
501.500000	137.230000 
502.000000	148.584000 
502.500000	158.698000 
503.000000	168.680000 
503.500000	182.592000 
504.000000	198.371000 
504.500000	212.568000 
505.000000	228.622000 
505.500000	239.363000 
506.000000	251.334000 
506.500000	267.432000 
507.000000	281.859000 
507.500000	302.466000 
508.000000	318.384000 
508.500000	330.655000 
509.000000	352.197000 
509.500000	356.434000 
510.000000	387.509000 
510.500000	399.482000 
511.000000	415.018000 
511.500000	431.846000 
512.000000	443.503000 
512.500000	457.404000 
513.000000	465.549000 
513.500000	470.299000 
514.000000	484.637000 
514.500000	499.830000 
515.000000	504.010000 
515.500000	522.600000 
516.000000	518.287000 
516.500000	522.125000 
517.000000	539.170000 
517.500000	524.827000 
518.000000	539.677000 
518.500000	548.065000 
519.000000	549.946000 
519.500000	543.745000 
520.000000	540.775000 
520.500000	532.723000 
521.000000	538.947000 
521.500000	528.021000 
522.000000	523.944000 
522.500000	533.013000 
523.000000	532.264000 
523.500000	535.219000 
524.000000	514.202000 
524.500000	511.337000 
525.000000	508.720000 
525.500000	508.846000 
526.000000	485.227000 
526.500000	479.300000 
527.000000	474.628000 
527.500000	458.924000 
528.000000	450.432000 
528.500000	445.076000 
529.000000	448.270000 
529.500000	436.113000 
530.000000	426.447000 
530.500000	413.637000 
531.000000	412.893000 
531.500000	405.191000 
532.000000	393.617000 
532.500000	392.528000 
533.000000	383.541000 
533.500000	365.143000 
534.000000	367.157000 
534.500000	366.200000 
535.000000	357.242000 
535.500000	355.580000 
536.000000	354.747000 
536.500000	340.536000 
537.000000	326.605000 
537.500000	329.622000 
538.000000	323.375000 
538.500000	318.346000 
539.000000	311.042000 
539.500000	301.985000 
540.000000	305.207000 
540.500000	297.518000 
541.000000	290.934000 
541.500000	296.436000 
542.000000	281.070000 
542.500000	278.859000 
543.000000	276.250000 
543.500000	271.843000 
544.000000	272.655000 
544.500000	265.628000 
545.000000	257.019000 
545.500000	261.747000 
546.000000	245.465000 
546.500000	240.618000 
547.000000	246.366000 
547.500000	239.772000 
548.000000	242.538000 
548.500000	231.273000 
549.000000	228.950000 
549.500000	226.719000 
550.000000	226.035000 
550.500000	217.119000 
551.000000	225.230000 
551.500000	211.325000 
552.000000	207.946000 
552.500000	204.735000 
553.000000	199.723000 
553.500000	196.115000 
554.000000	198.201000 
554.500000	193.595000 
555.000000	194.983000 
555.500000	185.049000 
556.000000	182.499000 
556.500000	175.562000 
557.000000	178.855000 
557.500000	176.993000 
558.000000	171.629000 
558.500000	166.879000 
559.000000	160.734000 
559.500000	162.688000 
560.000000	167.664000 
560.500000	158.927000 
561.000000	150.680000 
561.500000	149.084000 
562.000000	144.082000 
562.500000	143.104000 
563.000000	142.086000 
563.500000	139.168000 
564.000000	137.885000 
564.500000	131.379000 
565.000000	129.222000 
565.500000	131.629000 
566.000000	125.794000 
566.500000	120.108000 
567.000000	116.679000 
567.500000	121.466000 
568.000000	110.783000 
568.500000	112.975000 
569.000000	106.197000 
569.500000	110.727000 
570.000000	103.387000 
570.500000	101.066000 
571.000000	97.378000  
571.500000	97.851000  
572.000000	93.672000  
572.500000	91.515000  
573.000000	92.581999  
573.500000	83.656000  
574.000000	84.510000  
574.500000	84.553000  
575.000000	83.052000  
575.500000	80.864999  
576.000000	76.762000  
576.500000	72.968999  
577.000000	72.306000  
577.500000	72.275000  
578.000000	70.412000  
578.500000	68.870000  
579.000000	65.983000  
579.500000	66.217000  
580.000000	64.527000  
580.500000	61.709000  
581.000000	61.034000  
581.500000	64.415000  
582.000000	58.250000  
582.500000	56.122000  
583.000000	57.823000  
583.500000	54.381000  
584.000000	58.780000  
584.500000	56.675000  
585.000000	51.571000  
585.500000	52.029000  
586.000000	49.037000  
586.500000	51.605000  
587.000000	50.015000  
587.500000	46.101000  
588.000000	46.531000  
588.500000	44.235000  
589.000000	41.968000  
589.500000	45.791000  
590.000000	41.502000  
590.500000	41.048000  
591.000000	39.791000  
591.500000	41.521000  
592.000000	38.059000  
592.500000	39.324000  
593.000000	38.222000  
593.500000	38.990000  
594.000000	36.353000  
594.500000	38.274000  
595.000000	35.070000  
595.500000	31.765000  
596.000000	34.785000  
596.500000	33.635000  
597.000000	33.134000  
597.500000	33.623000  
598.000000	31.721000  
598.500000	30.965000  
599.000000	30.817000  
599.500000	31.099000  
600.000000	30.813000  
600.500000	29.233000  
601.000000	29.793000  
601.500000	28.184000  
602.000000	28.029000  
602.500000	27.264000  
603.000000	26.135000  
603.500000	26.372000  
604.000000	27.203000  
604.500000	25.001000  
605.000000	23.680000  
605.500000	24.929000  
606.000000	23.996000  
606.500000	23.383000  
607.000000	23.375000  
607.500000	21.757000  
608.000000	21.745000  
608.500000	22.026000  
609.000000	20.105000  
609.500000	22.241000  
610.000000	21.741000  
610.500000	19.199000  
611.000000	19.176000  
611.500000	19.233000  
612.000000	18.546000  
612.500000	19.059000  
613.000000	18.357000  
613.500000	18.862000  
614.000000	17.828000  
614.500000	18.433000  
615.000000	17.533000  
615.500000	16.101000  
616.000000	16.505000  
616.500000	15.828000  
617.000000	15.192000  
617.500000	15.085000  
618.000000	13.506000  
618.500000	14.406000  
619.000000	15.141000  
619.500000	14.003000  
620.000000	14.882000  
620.500000	13.370000  
621.000000	13.652000  
621.500000	12.710000  
622.000000	12.339000  
622.500000	12.412000  
623.000000	12.402000  
623.500000	11.844000  
624.000000	12.207000  
624.500000	11.580000  
625.000000	11.767000  
625.500000	11.028000  
626.000000	11.282000  
626.500000	10.314000  
627.000000	10.247000  
627.500000	10.723000  
628.000000	10.579000  
628.500000	9.321000   
629.000000	10.651000  
629.500000	8.837000   
630.000000	8.525000   
630.500000	8.656000   
631.000000	8.824999   
631.500000	7.551000   
632.000000	7.134000   
632.500000	8.039999   
633.000000	7.720000   
633.500000	7.310000   
634.000000	7.656000   
634.500000	8.073000   
635.000000	7.673000   
635.500000	5.965000   
636.000000	5.909000   
636.500000	6.109000   
637.000000	6.649000   
637.500000	6.338000   
638.000000	5.732000   
638.500000	5.760000   
639.000000	5.629000   
639.500000	5.049000   
640.000000	6.020000   
640.500000	4.780000   
641.000000	5.183000   
641.500000	5.947000   
642.000000	4.789000   
642.500000	4.314000   
643.000000	4.364000   
643.500000	3.875000   
644.000000	4.002000   
644.500000	4.053000   
645.000000	4.143000   
645.500000	4.855000   
646.000000	4.407000   
646.500000	4.329000   
647.000000	4.392000   
647.500000	3.998000   
648.000000	3.521000   
648.500000	4.104000   
649.000000	4.649000   
649.500000	3.720000   
650.000000	3.485000   
650.500000	3.096000   
651.000000	4.039000   
651.500000	3.565000   
652.000000	3.282000   
652.500000	3.207000   
653.000000	3.069000   
653.500000	2.743000   
654.000000	3.406000   
654.500000	3.202000   
655.000000	3.063000   
655.500000	3.748000   
656.000000	2.917000   
656.500000	2.656000   
657.000000	2.768000   
657.500000	2.231000   
658.000000	2.961000   
658.500000	3.337000   
659.000000	2.724000   
659.500000	2.718000   
660.000000	2.286000   
660.500000	2.551000   
661.000000	2.831000   
661.500000	2.989000   
662.000000	2.254000   
662.500000	2.582000   
663.000000	2.156000   
663.500000	1.809000   
664.000000	2.376000   
664.500000	2.068000   
665.000000	2.250000   
665.500000	1.950000   
666.000000	1.912000   
666.500000	2.721000   
667.000000	2.120000   
667.500000	1.759000   
668.000000	1.985000   
668.500000	2.198000   
669.000000	2.018000   
669.500000	2.271000   
670.000000	1.797000   
670.500000	1.913000   
671.000000	2.204000   
671.500000	1.662000   
672.000000	1.873000   
672.500000	1.746000   
673.000000	1.914000   
673.500000	1.898000   
674.000000	1.870000   
674.500000	1.480000   
675.000000	1.521000   
675.500000	1.851000   
676.000000	1.521000   
676.500000	1.391000   
677.000000	1.779000   
677.500000	2.216000   
678.000000	1.550000   
678.500000	1.416000   
679.000000	1.724000   
679.500000	1.742000   
680.000000	1.032000   
680.500000	1.172000   
681.000000	1.155000   
681.500000	1.177000   
682.000000	0.841000   
682.500000	0.991000   
683.000000	1.302000   
683.500000	1.411000   
684.000000	1.219000   
684.500000	1.312000   
685.000000	1.282000   
685.500000	1.752000   
686.000000	1.209000   
686.500000	1.368000   
687.000000	1.214000   
687.500000	1.164000   
688.000000	1.058000   
688.500000	1.064000   
689.000000	1.239000   
689.500000	0.980000   
690.000000	1.575000   
690.500000	1.120000   
691.000000	1.562000   
691.500000	1.173000   
692.000000	0.923000   
692.500000	1.149000   
693.000000	0.846000   
693.500000	0.803000   
694.000000	0.994000   
694.500000	1.198000   
695.000000	1.228000   
695.500000	0.998000   
696.000000	1.034000   
696.500000	0.939999   
697.000000	1.098000   
697.500000	0.863000   
698.000000	1.162000   
698.500000	1.074000   
699.000000	0.921000   
699.500000	0.815999   
700.000000	0.810000   
700.500000	0.805000   

