PE FL                   SPECTRUM    ASCII       PEDS        1.60        
  -1
DMB022.SP
23/03/01
17:06:56.00
23/03/01
17:07:57.00


700.500000
1









LS50-B
415.00
2.50
2.50
SCAN
1
20
100
100
0
400
0
1
0
1
7
ON
700 415 
1 0 0
#HDR
-1
-1
#GR
NM
INT 
0.00002384185791015625
0.0
380.000000
0.500000
642
8
468.296000
-0.036000
#DATA
380.000000	0.187000   
380.500000	0.226000   
381.000000	0.124000   
381.500000	0.000000   
382.000000	0.253000   
382.500000	0.164000   
383.000000	0.116000   
383.500000	0.201000   
384.000000	0.327000   
384.500000	0.241000   
385.000000	0.068000   
385.500000	0.232000   
386.000000	0.303000   
386.500000	0.368000   
387.000000	0.230000   
387.500000	0.055000   
388.000000	0.076000   
388.500000	0.156000   
389.000000	0.127000   
389.500000	0.518000   
390.000000	0.179000   
390.500000	0.251000   
391.000000	0.393000   
391.500000	0.442000   
392.000000	0.223000   
392.500000	0.202000   
393.000000	0.325000   
393.500000	0.000000   
394.000000	0.459000   
394.500000	0.144000   
395.000000	-0.036000  
395.500000	0.110000   
396.000000	0.288000   
396.500000	0.213000   
397.000000	0.137000   
397.500000	0.054000   
398.000000	0.364000   
398.500000	0.299000   
399.000000	0.224000   
399.500000	0.463000   
400.000000	0.087999   
400.500000	0.346000   
401.000000	0.311000   
401.500000	0.381000   
402.000000	0.338000   
402.500000	0.432000   
403.000000	0.321000   
403.500000	0.178000   
404.000000	0.302000   
404.500000	0.055000   
405.000000	0.252000   
405.500000	0.243000   
406.000000	0.429000   
406.500000	0.432000   
407.000000	0.416000   
407.500000	0.811000   
408.000000	0.580000   
408.500000	0.798000   
409.000000	1.407000   
409.500000	2.129000   
410.000000	5.100000   
410.500000	9.230000   
411.000000	15.108000  
411.500000	26.339000  
412.000000	38.913000  
412.500000	52.317000  
413.000000	63.080000  
413.500000	74.748000  
414.000000	75.458000  
414.500000	74.017000  
415.000000	65.691999  
415.500000	51.610000  
416.000000	37.568000  
416.500000	23.792000  
417.000000	14.966000  
417.500000	8.754000   
418.000000	5.312000   
418.500000	3.100000   
419.000000	1.562000   
419.500000	0.800000   
420.000000	0.572000   
420.500000	0.666000   
421.000000	0.546000   
421.500000	0.446000   
422.000000	0.575000   
422.500000	0.607000   
423.000000	0.670000   
423.500000	0.931000   
424.000000	0.485000   
424.500000	0.432000   
425.000000	0.316000   
425.500000	0.597000   
426.000000	0.414000   
426.500000	0.415000   
427.000000	0.361000   
427.500000	0.432000   
428.000000	0.431000   
428.500000	0.162000   
429.000000	0.306000   
429.500000	0.265000   
430.000000	0.437000   
430.500000	0.629000   
431.000000	0.502000   
431.500000	0.490000   
432.000000	0.300000   
432.500000	0.626000   
433.000000	0.662000   
433.500000	1.032000   
434.000000	0.806000   
434.500000	0.760000   
435.000000	0.686000   
435.500000	0.569000   
436.000000	0.802000   
436.500000	0.829000   
437.000000	0.686000   
437.500000	0.687000   
438.000000	0.757000   
438.500000	0.870000   
439.000000	0.903000   
439.500000	0.973000   
440.000000	0.896000   
440.500000	0.940999   
441.000000	0.856000   
441.500000	1.047000   
442.000000	0.927000   
442.500000	1.043000   
443.000000	1.480000   
443.500000	0.945000   
444.000000	0.969000   
444.500000	1.034000   
445.000000	0.963000   
445.500000	1.234000   
446.000000	1.233000   
446.500000	1.518000   
447.000000	1.520000   
447.500000	1.385000   
448.000000	1.738000   
448.500000	1.749000   
449.000000	1.504000   
449.500000	1.967000   
450.000000	1.214000   
450.500000	1.613000   
451.000000	1.757000   
451.500000	1.282000   
452.000000	2.031000   
452.500000	1.605000   
453.000000	1.529000   
453.500000	1.871000   
454.000000	1.356000   
454.500000	1.566000   
455.000000	2.050000   
455.500000	1.993000   
456.000000	1.611000   
456.500000	1.800000   
457.000000	1.973000   
457.500000	1.536000   
458.000000	1.329000   
458.500000	1.646000   
459.000000	2.224000   
459.500000	1.287000   
460.000000	1.757000   
460.500000	1.820000   
461.000000	2.085000   
461.500000	1.985000   
462.000000	2.131000   
462.500000	1.769000   
463.000000	2.210000   
463.500000	2.199000   
464.000000	1.902000   
464.500000	2.315000   
465.000000	2.171000   
465.500000	2.621000   
466.000000	2.641000   
466.500000	2.442000   
467.000000	2.067000   
467.500000	2.222000   
468.000000	2.352000   
468.500000	2.386000   
469.000000	2.571000   
469.500000	1.846000   
470.000000	2.462000   
470.500000	2.276000   
471.000000	2.575000   
471.500000	2.270000   
472.000000	1.915000   
472.500000	2.430000   
473.000000	2.077000   
473.500000	1.983000   
474.000000	3.579000   
474.500000	2.284000   
475.000000	2.510000   
475.500000	2.473000   
476.000000	3.018000   
476.500000	3.412000   
477.000000	2.322000   
477.500000	3.363000   
478.000000	3.125000   
478.500000	3.328000   
479.000000	3.234000   
479.500000	3.531000   
480.000000	3.962000   
480.500000	4.204000   
481.000000	4.492000   
481.500000	4.793000   
482.000000	4.722000   
482.500000	5.795000   
483.000000	5.790000   
483.500000	6.362000   
484.000000	6.300000   
484.500000	6.838000   
485.000000	7.108000   
485.500000	7.117000   
486.000000	7.629000   
486.500000	8.407000   
487.000000	9.346000   
487.500000	10.584000  
488.000000	11.056000  
488.500000	10.360000  
489.000000	12.403000  
489.500000	14.800000  
490.000000	13.799000  
490.500000	17.214000  
491.000000	17.687000  
491.500000	20.040000  
492.000000	19.748000  
492.500000	23.308000  
493.000000	27.148000  
493.500000	29.257000  
494.000000	29.908000  
494.500000	33.948000  
495.000000	38.130000  
495.500000	41.124000  
496.000000	44.461000  
496.500000	47.591000  
497.000000	51.683000  
497.500000	56.807000  
498.000000	62.318000  
498.500000	72.264000  
499.000000	75.664000  
499.500000	80.008000  
500.000000	92.488000  
500.500000	98.414000  
501.000000	109.590000 
501.500000	113.480000 
502.000000	120.883000 
502.500000	131.945000 
503.000000	140.411000 
503.500000	149.001000 
504.000000	163.417000 
504.500000	176.724000 
505.000000	186.565000 
505.500000	198.794000 
506.000000	211.950000 
506.500000	222.079000 
507.000000	236.347000 
507.500000	259.127000 
508.000000	266.749000 
508.500000	273.939000 
509.000000	288.313000 
509.500000	311.701000 
510.000000	319.792000 
510.500000	330.754000 
511.000000	349.114000 
511.500000	369.927000 
512.000000	377.789000 
512.500000	389.162000 
513.000000	398.783000 
513.500000	401.071000 
514.000000	421.408000 
514.500000	427.997000 
515.000000	434.084000 
515.500000	436.223000 
516.000000	454.230000 
516.500000	448.658000 
517.000000	450.816000 
517.500000	453.275000 
518.000000	455.162000 
518.500000	463.492000 
519.000000	465.037000 
519.500000	468.296000 
520.000000	454.289000 
520.500000	462.900000 
521.000000	454.938000 
521.500000	454.465000 
522.000000	442.740000 
522.500000	448.310000 
523.000000	449.330000 
523.500000	443.830000 
524.000000	428.013000 
524.500000	434.965000 
525.000000	427.876000 
525.500000	416.441000 
526.000000	413.119000 
526.500000	408.649000 
527.000000	401.084000 
527.500000	403.447000 
528.000000	395.108000 
528.500000	383.040000 
529.000000	386.185000 
529.500000	371.527000 
530.000000	366.492000 
530.500000	369.835000 
531.000000	362.305000 
531.500000	342.917000 
532.000000	339.760000 
532.500000	334.996000 
533.000000	326.636000 
533.500000	338.593000 
534.000000	323.338000 
534.500000	319.204000 
535.000000	308.596000 
535.500000	300.901000 
536.000000	301.844000 
536.500000	299.876000 
537.000000	289.674000 
537.500000	295.906000 
538.000000	281.044000 
538.500000	272.211000 
539.000000	271.394000 
539.500000	263.142000 
540.000000	265.586000 
540.500000	261.756000 
541.000000	258.283000 
541.500000	242.980000 
542.000000	247.310000 
542.500000	241.847000 
543.000000	246.851000 
543.500000	230.535000 
544.000000	229.084000 
544.500000	228.635000 
545.000000	229.119000 
545.500000	218.599000 
546.000000	219.833000 
546.500000	217.812000 
547.000000	212.869000 
547.500000	207.658000 
548.000000	208.277000 
548.500000	208.265000 
549.000000	199.308000 
549.500000	196.182000 
550.000000	194.272000 
550.500000	192.898000 
551.000000	184.358000 
551.500000	193.020000 
552.000000	178.550000 
552.500000	179.941000 
553.000000	178.740000 
553.500000	184.001000 
554.000000	170.851000 
554.500000	164.241000 
555.000000	163.073000 
555.500000	166.429000 
556.000000	160.610000 
556.500000	159.285000 
557.000000	155.113000 
557.500000	154.283000 
558.000000	153.318000 
558.500000	153.389000 
559.000000	147.336000 
559.500000	140.796000 
560.000000	139.860000 
560.500000	137.457000 
561.000000	135.669000 
561.500000	130.036000 
562.000000	127.421000 
562.500000	122.358000 
563.000000	126.956000 
563.500000	122.668000 
564.000000	124.676000 
564.500000	116.390000 
565.000000	115.689000 
565.500000	108.503000 
566.000000	108.419000 
566.500000	107.501000 
567.000000	105.740000 
567.500000	100.463000 
568.000000	98.095000  
568.500000	95.613000  
569.000000	94.386000  
569.500000	92.304000  
570.000000	88.485000  
570.500000	84.500000  
571.000000	82.239000  
571.500000	91.054000  
572.000000	84.282000  
572.500000	79.809000  
573.000000	77.019000  
573.500000	75.556000  
574.000000	76.651000  
574.500000	74.223000  
575.000000	70.177000  
575.500000	73.412000  
576.000000	72.099000  
576.500000	68.055000  
577.000000	67.971999  
577.500000	62.706000  
578.000000	61.861000  
578.500000	60.199000  
579.000000	62.094000  
579.500000	54.507000  
580.000000	56.812000  
580.500000	55.353000  
581.000000	56.899000  
581.500000	52.868000  
582.000000	53.316000  
582.500000	51.505000  
583.000000	50.909000  
583.500000	51.234000  
584.000000	48.901000  
584.500000	47.389000  
585.000000	47.015000  
585.500000	45.674000  
586.000000	44.653000  
586.500000	42.558000  
587.000000	43.661000  
587.500000	42.441000  
588.000000	38.830000  
588.500000	40.210000  
589.000000	39.577000  
589.500000	39.254000  
590.000000	41.360000  
590.500000	38.392000  
591.000000	37.479000  
591.500000	38.848000  
592.000000	36.551000  
592.500000	34.278000  
593.000000	34.878000  
593.500000	35.087000  
594.000000	35.102000  
594.500000	33.023000  
595.000000	31.152000  
595.500000	34.688000  
596.000000	31.026000  
596.500000	29.101000  
597.000000	30.629000  
597.500000	30.765000  
598.000000	28.230000  
598.500000	26.628000  
599.000000	29.254000  
599.500000	26.455000  
600.000000	26.506000  
600.500000	26.088000  
601.000000	25.877000  
601.500000	25.129000  
602.000000	25.464000  
602.500000	24.900000  
603.000000	24.595000  
603.500000	23.591000  
604.000000	22.760000  
604.500000	22.102000  
605.000000	23.434000  
605.500000	21.409000  
606.000000	21.160000  
606.500000	21.320000  
607.000000	20.017000  
607.500000	21.840000  
608.000000	20.375000  
608.500000	20.909000  
609.000000	18.695000  
609.500000	20.639000  
610.000000	17.690000  
610.500000	19.272000  
611.000000	19.909000  
611.500000	18.700000  
612.000000	18.823000  
612.500000	18.841000  
613.000000	15.744000  
613.500000	19.031000  
614.000000	16.152000  
614.500000	15.929000  
615.000000	15.214000  
615.500000	14.450000  
616.000000	15.429000  
616.500000	15.157000  
617.000000	14.326000  
617.500000	13.613000  
618.000000	12.395000  
618.500000	14.152000  
619.000000	15.035000  
619.500000	12.744000  
620.000000	12.770000  
620.500000	10.382000  
621.000000	11.754000  
621.500000	12.210000  
622.000000	11.434000  
622.500000	11.220000  
623.000000	11.789000  
623.500000	10.002000  
624.000000	10.397000  
624.500000	10.634000  
625.000000	10.216000  
625.500000	10.043000  
626.000000	10.120000  
626.500000	9.137000   
627.000000	10.606000  
627.500000	8.895000   
628.000000	9.595000   
628.500000	9.012000   
629.000000	8.803000   
629.500000	7.484000   
630.000000	8.064000   
630.500000	7.784000   
631.000000	8.063000   
631.500000	8.721000   
632.000000	7.575000   
632.500000	6.781000   
633.000000	7.106000   
633.500000	5.700000   
634.000000	6.455000   
634.500000	6.427000   
635.000000	6.916000   
635.500000	5.439000   
636.000000	5.718000   
636.500000	5.934000   
637.000000	5.831000   
637.500000	6.313000   
638.000000	5.495000   
638.500000	6.083000   
639.000000	5.723000   
639.500000	4.905000   
640.000000	6.118000   
640.500000	5.356000   
641.000000	4.706000   
641.500000	4.742000   
642.000000	4.467000   
642.500000	4.896000   
643.000000	4.363000   
643.500000	3.909000   
644.000000	4.657000   
644.500000	4.595000   
645.000000	5.182000   
645.500000	4.626000   
646.000000	4.300000   
646.500000	3.617000   
647.000000	3.431000   
647.500000	4.123000   
648.000000	3.691000   
648.500000	3.494000   
649.000000	3.891000   
649.500000	3.496000   
650.000000	3.743000   
650.500000	3.667000   
651.000000	3.128000   
651.500000	3.617000   
652.000000	4.035000   
652.500000	3.740000   
653.000000	3.325000   
653.500000	3.021000   
654.000000	3.279000   
654.500000	2.796000   
655.000000	3.128000   
655.500000	1.834000   
656.000000	2.892000   
656.500000	2.771000   
657.000000	2.123000   
657.500000	2.758000   
658.000000	3.409000   
658.500000	2.703000   
659.000000	2.836000   
659.500000	2.875000   
660.000000	2.414000   
660.500000	2.683000   
661.000000	2.251000   
661.500000	2.433000   
662.000000	2.613000   
662.500000	2.521000   
663.000000	1.971000   
663.500000	1.854000   
664.000000	2.095000   
664.500000	1.920000   
665.000000	1.784000   
665.500000	1.651000   
666.000000	2.048000   
666.500000	2.523000   
667.000000	1.942000   
667.500000	2.798000   
668.000000	2.768000   
668.500000	2.244000   
669.000000	1.837000   
669.500000	1.654000   
670.000000	1.782000   
670.500000	1.717000   
671.000000	2.116000   
671.500000	1.841000   
672.000000	1.566000   
672.500000	1.886000   
673.000000	2.208000   
673.500000	1.275000   
674.000000	1.988000   
674.500000	1.838000   
675.000000	1.848000   
675.500000	1.598000   
676.000000	1.674000   
676.500000	1.841000   
677.000000	1.177000   
677.500000	1.765000   
678.000000	1.174000   
678.500000	1.381000   
679.000000	1.202000   
679.500000	0.981000   
680.000000	1.159000   
680.500000	1.099000   
681.000000	1.281000   
681.500000	1.485000   
682.000000	1.158000   
682.500000	1.262000   
683.000000	1.394000   
683.500000	1.497000   
684.000000	1.436000   
684.500000	1.333000   
685.000000	1.133000   
685.500000	1.680000   
686.000000	1.146000   
686.500000	1.357000   
687.000000	0.990000   
687.500000	0.830000   
688.000000	0.966000   
688.500000	1.050000   
689.000000	0.991000   
689.500000	0.867000   
690.000000	1.021000   
690.500000	0.860000   
691.000000	0.823000   
691.500000	1.049000   
692.000000	1.059000   
692.500000	1.009000   
693.000000	1.019000   
693.500000	0.910000   
694.000000	0.930000   
694.500000	0.707000   
695.000000	0.718000   
695.500000	0.911000   
696.000000	0.812999   
696.500000	0.782000   
697.000000	1.104000   
697.500000	0.909000   
698.000000	0.811000   
698.500000	0.987000   
699.000000	1.150000   
699.500000	0.685000   
700.000000	0.554000   
700.500000	0.424000   

