PE FL                   SPECTRUM    ASCII       PEDS        1.60        
  -1
DMB032.SP
23/03/01
17:34:51.00
23/03/01
17:35:52.00


700.500000
1









LS50-B
415.00
2.50
2.50
SCAN
1
20
100
100
0
400
0
1
0
1
7
ON
700 415 
1 0 0
#HDR
-1
-1
#GR
NM
INT 
0.00002384185791015625
0.0
380.000000
0.500000
642
8
450.858000
0.042000
#DATA
380.000000	0.227000   
380.500000	0.201000   
381.000000	0.276000   
381.500000	0.470000   
382.000000	0.341000   
382.500000	0.245000   
383.000000	0.416000   
383.500000	0.223000   
384.000000	0.336000   
384.500000	0.257000   
385.000000	0.247000   
385.500000	0.181000   
386.000000	0.390000   
386.500000	0.315000   
387.000000	0.128000   
387.500000	0.337000   
388.000000	0.368000   
388.500000	0.166000   
389.000000	0.201000   
389.500000	0.234000   
390.000000	0.294000   
390.500000	0.280000   
391.000000	0.401000   
391.500000	0.249000   
392.000000	0.224000   
392.500000	0.355000   
393.000000	0.111000   
393.500000	0.109000   
394.000000	0.265000   
394.500000	0.421000   
395.000000	0.465000   
395.500000	0.065000   
396.000000	0.314000   
396.500000	0.343000   
397.000000	0.315000   
397.500000	0.110000   
398.000000	0.335000   
398.500000	0.334000   
399.000000	0.402000   
399.500000	0.487000   
400.000000	0.423000   
400.500000	0.589000   
401.000000	0.397000   
401.500000	0.454000   
402.000000	0.378000   
402.500000	0.269000   
403.000000	0.298000   
403.500000	0.423000   
404.000000	0.042000   
404.500000	0.282000   
405.000000	0.615000   
405.500000	0.454000   
406.000000	0.665000   
406.500000	0.721000   
407.000000	0.674000   
407.500000	0.496000   
408.000000	0.949000   
408.500000	1.729000   
409.000000	4.019000   
409.500000	8.490000   
410.000000	15.654000  
410.500000	30.519000  
411.000000	51.222000  
411.500000	83.015000  
412.000000	124.748000 
412.500000	170.431000 
413.000000	215.391000 
413.500000	246.286000 
414.000000	244.881000 
414.500000	223.330000 
415.000000	191.863000 
415.500000	155.672000 
416.000000	110.477000 
416.500000	71.794000  
417.000000	47.395000  
417.500000	23.743000  
418.000000	12.982000  
418.500000	6.047000   
419.000000	2.923000   
419.500000	1.692000   
420.000000	1.311000   
420.500000	0.755000   
421.000000	0.915000   
421.500000	0.506000   
422.000000	0.750000   
422.500000	0.906000   
423.000000	0.961000   
423.500000	0.661000   
424.000000	0.613000   
424.500000	0.478000   
425.000000	0.713000   
425.500000	0.451000   
426.000000	0.638000   
426.500000	0.345000   
427.000000	0.549000   
427.500000	0.679000   
428.000000	0.718000   
428.500000	0.660000   
429.000000	0.514000   
429.500000	0.829000   
430.000000	0.432000   
430.500000	0.637000   
431.000000	0.436000   
431.500000	0.763000   
432.000000	0.662000   
432.500000	0.928000   
433.000000	0.790000   
433.500000	0.741000   
434.000000	0.746000   
434.500000	0.880000   
435.000000	0.778000   
435.500000	0.143000   
436.000000	0.790000   
436.500000	0.687000   
437.000000	0.939999   
437.500000	0.671000   
438.000000	0.880000   
438.500000	0.826000   
439.000000	1.084000   
439.500000	1.443000   
440.000000	1.511000   
440.500000	1.028000   
441.000000	1.012000   
441.500000	1.490000   
442.000000	1.066000   
442.500000	1.070000   
443.000000	1.142000   
443.500000	1.361000   
444.000000	1.390000   
444.500000	1.694000   
445.000000	1.407000   
445.500000	0.963000   
446.000000	1.197000   
446.500000	1.506000   
447.000000	1.406000   
447.500000	1.459000   
448.000000	1.933000   
448.500000	1.442000   
449.000000	1.372000   
449.500000	1.258000   
450.000000	1.378000   
450.500000	1.381000   
451.000000	1.233000   
451.500000	1.173000   
452.000000	1.829000   
452.500000	2.070000   
453.000000	1.577000   
453.500000	1.770000   
454.000000	1.492000   
454.500000	1.709000   
455.000000	1.706000   
455.500000	1.773000   
456.000000	1.901000   
456.500000	2.089000   
457.000000	2.238000   
457.500000	1.775000   
458.000000	1.854000   
458.500000	1.514000   
459.000000	1.502000   
459.500000	1.471000   
460.000000	2.027000   
460.500000	1.793000   
461.000000	1.995000   
461.500000	3.034000   
462.000000	2.568000   
462.500000	2.837000   
463.000000	2.538000   
463.500000	2.197000   
464.000000	2.178000   
464.500000	2.182000   
465.000000	1.994000   
465.500000	1.924000   
466.000000	2.323000   
466.500000	2.537000   
467.000000	2.715000   
467.500000	2.704000   
468.000000	2.456000   
468.500000	2.491000   
469.000000	2.813000   
469.500000	2.823000   
470.000000	2.318000   
470.500000	2.492000   
471.000000	2.458000   
471.500000	1.895000   
472.000000	2.442000   
472.500000	2.702000   
473.000000	2.640000   
473.500000	4.124000   
474.000000	3.097000   
474.500000	3.232000   
475.000000	2.435000   
475.500000	3.367000   
476.000000	2.910000   
476.500000	4.177000   
477.000000	3.479000   
477.500000	3.279000   
478.000000	3.365000   
478.500000	3.926000   
479.000000	3.498000   
479.500000	3.620000   
480.000000	4.213000   
480.500000	3.583000   
481.000000	4.137000   
481.500000	3.591000   
482.000000	4.296000   
482.500000	4.994000   
483.000000	5.324000   
483.500000	5.597000   
484.000000	5.559000   
484.500000	6.885000   
485.000000	7.581000   
485.500000	7.824000   
486.000000	7.378000   
486.500000	9.007999   
487.000000	8.795999   
487.500000	10.186000  
488.000000	11.940000  
488.500000	12.760000  
489.000000	13.726000  
489.500000	13.095000  
490.000000	14.708000  
490.500000	15.951000  
491.000000	16.926000  
491.500000	19.850000  
492.000000	21.855000  
492.500000	23.168000  
493.000000	25.666000  
493.500000	26.939000  
494.000000	28.796000  
494.500000	32.802000  
495.000000	33.478000  
495.500000	39.866000  
496.000000	43.180000  
496.500000	45.620000  
497.000000	47.758000  
497.500000	57.292000  
498.000000	61.025000  
498.500000	66.337999  
499.000000	76.474000  
499.500000	76.018000  
500.000000	87.516000  
500.500000	95.519000  
501.000000	101.525000 
501.500000	111.707000 
502.000000	117.018000 
502.500000	126.001000 
503.000000	133.759000 
503.500000	148.790000 
504.000000	154.745000 
504.500000	167.989000 
505.000000	177.293000 
505.500000	184.578000 
506.000000	196.665000 
506.500000	215.963000 
507.000000	230.520000 
507.500000	244.333000 
508.000000	250.994000 
508.500000	268.037000 
509.000000	278.972000 
509.500000	295.349000 
510.000000	301.509000 
510.500000	320.320000 
511.000000	330.682000 
511.500000	344.035000 
512.000000	355.463000 
512.500000	367.677000 
513.000000	376.223000 
513.500000	385.316000 
514.000000	404.406000 
514.500000	413.712000 
515.000000	414.826000 
515.500000	413.980000 
516.000000	420.616000 
516.500000	432.127000 
517.000000	423.337000 
517.500000	444.564000 
518.000000	443.513000 
518.500000	446.106000 
519.000000	441.687000 
519.500000	450.858000 
520.000000	441.784000 
520.500000	442.599000 
521.000000	440.703000 
521.500000	426.916000 
522.000000	433.036000 
522.500000	422.495000 
523.000000	419.895000 
523.500000	424.373000 
524.000000	416.049000 
524.500000	421.485000 
525.000000	411.369000 
525.500000	405.968000 
526.000000	388.863000 
526.500000	388.539000 
527.000000	383.980000 
527.500000	378.663000 
528.000000	372.098000 
528.500000	366.987000 
529.000000	363.123000 
529.500000	366.709000 
530.000000	354.312000 
530.500000	343.206000 
531.000000	333.130000 
531.500000	327.222000 
532.000000	324.075000 
532.500000	320.118000 
533.000000	312.601000 
533.500000	305.278000 
534.000000	304.350000 
534.500000	304.886000 
535.000000	296.813000 
535.500000	283.979000 
536.000000	288.941000 
536.500000	286.211000 
537.000000	276.975000 
537.500000	280.620000 
538.000000	269.057000 
538.500000	264.878000 
539.000000	264.245000 
539.500000	252.683000 
540.000000	248.668000 
540.500000	245.911000 
541.000000	243.273000 
541.500000	235.880000 
542.000000	229.354000 
542.500000	227.520000 
543.000000	225.977000 
543.500000	212.711000 
544.000000	224.656000 
544.500000	217.085000 
545.000000	216.469000 
545.500000	205.400000 
546.000000	207.050000 
546.500000	205.288000 
547.000000	198.838000 
547.500000	191.533000 
548.000000	194.864000 
548.500000	193.340000 
549.000000	185.273000 
549.500000	188.700000 
550.000000	191.584000 
550.500000	185.607000 
551.000000	174.895000 
551.500000	177.241000 
552.000000	174.024000 
552.500000	170.586000 
553.000000	166.027000 
553.500000	165.569000 
554.000000	162.626000 
554.500000	161.141000 
555.000000	158.301000 
555.500000	157.645000 
556.000000	153.567000 
556.500000	152.069000 
557.000000	148.883000 
557.500000	142.110000 
558.000000	139.524000 
558.500000	136.120000 
559.000000	137.094000 
559.500000	131.027000 
560.000000	130.695000 
560.500000	131.245000 
561.000000	128.778000 
561.500000	125.932000 
562.000000	118.592000 
562.500000	119.298000 
563.000000	113.154000 
563.500000	114.078000 
564.000000	107.907000 
564.500000	105.927000 
565.000000	105.195000 
565.500000	106.196000 
566.000000	101.488000 
566.500000	102.142000 
567.000000	96.920000  
567.500000	102.420000 
568.000000	92.920000  
568.500000	90.294000  
569.000000	90.431000  
569.500000	91.848000  
570.000000	83.467000  
570.500000	83.527000  
571.000000	83.364000  
571.500000	86.199000  
572.000000	79.727999  
572.500000	78.883000  
573.000000	75.432000  
573.500000	73.578999  
574.000000	67.242000  
574.500000	69.178000  
575.000000	69.374000  
575.500000	68.708000  
576.000000	64.998000  
576.500000	62.244000  
577.000000	61.755000  
577.500000	59.773000  
578.000000	62.421000  
578.500000	58.634000  
579.000000	56.505000  
579.500000	55.763000  
580.000000	55.139000  
580.500000	52.252000  
581.000000	50.007000  
581.500000	52.760000  
582.000000	50.248000  
582.500000	47.413000  
583.000000	47.744000  
583.500000	47.226000  
584.000000	43.868000  
584.500000	43.591000  
585.000000	43.599000  
585.500000	42.835000  
586.000000	40.371000  
586.500000	39.490000  
587.000000	40.282000  
587.500000	38.681000  
588.000000	39.803000  
588.500000	38.144000  
589.000000	35.786000  
589.500000	35.878000  
590.000000	35.049000  
590.500000	37.038000  
591.000000	36.720000  
591.500000	35.872000  
592.000000	32.172000  
592.500000	31.973000  
593.000000	30.478000  
593.500000	28.544000  
594.000000	29.153000  
594.500000	29.448000  
595.000000	29.328000  
595.500000	30.274000  
596.000000	27.811000  
596.500000	27.152000  
597.000000	26.901000  
597.500000	27.553000  
598.000000	28.050000  
598.500000	26.352000  
599.000000	27.532000  
599.500000	26.457000  
600.000000	24.181000  
600.500000	23.233000  
601.000000	24.067000  
601.500000	22.540000  
602.000000	21.680000  
602.500000	21.413000  
603.000000	20.609000  
603.500000	21.205000  
604.000000	19.997000  
604.500000	20.332000  
605.000000	21.825000  
605.500000	20.864000  
606.000000	18.235000  
606.500000	20.831000  
607.000000	18.404000  
607.500000	17.717000  
608.000000	18.711000  
608.500000	18.303000  
609.000000	18.271000  
609.500000	17.277000  
610.000000	16.958000  
610.500000	16.012000  
611.000000	16.590000  
611.500000	17.168000  
612.000000	16.779000  
612.500000	15.487000  
613.000000	15.494000  
613.500000	13.562000  
614.000000	14.273000  
614.500000	14.871000  
615.000000	13.989000  
615.500000	12.857000  
616.000000	14.018000  
616.500000	14.044000  
617.000000	12.766000  
617.500000	11.431000  
618.000000	11.640000  
618.500000	12.388000  
619.000000	11.992000  
619.500000	13.122000  
620.000000	10.409000  
620.500000	11.024000  
621.000000	10.860000  
621.500000	10.058000  
622.000000	10.595000  
622.500000	10.755000  
623.000000	10.207000  
623.500000	9.521000   
624.000000	8.598000   
624.500000	9.696999   
625.000000	9.061999   
625.500000	9.632000   
626.000000	7.915000   
626.500000	8.558000   
627.000000	8.023000   
627.500000	8.566000   
628.000000	7.313000   
628.500000	7.604000   
629.000000	6.838000   
629.500000	7.569000   
630.000000	7.378000   
630.500000	7.412000   
631.000000	7.593000   
631.500000	6.651000   
632.000000	7.247000   
632.500000	7.352000   
633.000000	6.857000   
633.500000	6.421000   
634.000000	6.547000   
634.500000	5.917000   
635.000000	6.058000   
635.500000	5.599000   
636.000000	6.180000   
636.500000	5.436000   
637.000000	5.248000   
637.500000	5.632000   
638.000000	5.763000   
638.500000	4.862000   
639.000000	5.146000   
639.500000	4.376000   
640.000000	4.453000   
640.500000	4.846000   
641.000000	3.805000   
641.500000	4.168000   
642.000000	4.236000   
642.500000	4.955000   
643.000000	3.883000   
643.500000	3.226000   
644.000000	4.240000   
644.500000	3.621000   
645.000000	4.227000   
645.500000	3.914000   
646.000000	3.618000   
646.500000	3.672000   
647.000000	3.649000   
647.500000	3.601000   
648.000000	2.817000   
648.500000	2.980000   
649.000000	3.511000   
649.500000	2.952000   
650.000000	3.350000   
650.500000	3.307000   
651.000000	2.940000   
651.500000	2.818000   
652.000000	2.715000   
652.500000	2.774000   
653.000000	2.329000   
653.500000	3.053000   
654.000000	2.916000   
654.500000	3.026000   
655.000000	2.591000   
655.500000	3.228000   
656.000000	2.680000   
656.500000	2.655000   
657.000000	2.357000   
657.500000	1.970000   
658.000000	2.571000   
658.500000	2.495000   
659.000000	1.860000   
659.500000	1.932000   
660.000000	2.422000   
660.500000	1.969000   
661.000000	2.187000   
661.500000	2.699000   
662.000000	2.050000   
662.500000	2.066000   
663.000000	1.854000   
663.500000	1.947000   
664.000000	1.690000   
664.500000	2.030000   
665.000000	2.412000   
665.500000	2.574000   
666.000000	1.373000   
666.500000	1.349000   
667.000000	1.820000   
667.500000	1.365000   
668.000000	1.987000   
668.500000	1.860000   
669.000000	2.261000   
669.500000	2.017000   
670.000000	1.411000   
670.500000	2.108000   
671.000000	2.369000   
671.500000	1.478000   
672.000000	2.075000   
672.500000	1.719000   
673.000000	1.643000   
673.500000	1.926000   
674.000000	1.938000   
674.500000	1.679000   
675.000000	1.497000   
675.500000	1.961000   
676.000000	1.253000   
676.500000	1.429000   
677.000000	1.664000   
677.500000	1.043000   
678.000000	1.461000   
678.500000	1.388000   
679.000000	1.646000   
679.500000	1.706000   
680.000000	1.286000   
680.500000	1.402000   
681.000000	1.433000   
681.500000	0.987000   
682.000000	0.972000   
682.500000	1.145000   
683.000000	1.383000   
683.500000	1.113000   
684.000000	1.203000   
684.500000	1.457000   
685.000000	1.709000   
685.500000	0.634000   
686.000000	1.063000   
686.500000	1.053000   
687.000000	0.989000   
687.500000	0.692999   
688.000000	1.097000   
688.500000	0.524000   
689.000000	0.906000   
689.500000	1.490000   
690.000000	1.013000   
690.500000	1.176000   
691.000000	1.076000   
691.500000	1.095000   
692.000000	1.159000   
692.500000	0.670000   
693.000000	0.562000   
693.500000	0.939999   
694.000000	0.994000   
694.500000	1.032000   
695.000000	0.969000   
695.500000	1.055000   
696.000000	0.821000   
696.500000	0.902000   
697.000000	0.798000   
697.500000	0.734000   
698.000000	0.598000   
698.500000	0.990000   
699.000000	0.645000   
699.500000	0.454000   
700.000000	0.638000   
700.500000	0.821000   

