PE FL                   SPECTRUM    ASCII       PEDS        1.60        
  -1
DMB007.SP
23/03/01
16:16:01.00
23/03/01
16:17:02.00


700.500000
1









LS50-B
415.00
2.50
2.50
SCAN
1
20
100
100
0
400
0
1
0
1
7
ON
700 415 
1 0 0
#HDR
-1
-1
#GR
NM
INT 
0.00002384185791015625
0.0
380.000000
0.500000
642
8
281.766000
0.000000
#DATA
380.000000	0.178000   
380.500000	0.144000   
381.000000	0.128000   
381.500000	0.109000   
382.000000	0.131000   
382.500000	0.217000   
383.000000	0.224000   
383.500000	0.487000   
384.000000	0.068000   
384.500000	0.005000   
385.000000	0.273000   
385.500000	0.000000   
386.000000	0.052000   
386.500000	0.061000   
387.000000	0.141000   
387.500000	0.239000   
388.000000	0.285000   
388.500000	0.175000   
389.000000	0.197000   
389.500000	0.259000   
390.000000	0.095000   
390.500000	0.136000   
391.000000	0.332000   
391.500000	0.055000   
392.000000	0.210000   
392.500000	0.214000   
393.000000	0.190000   
393.500000	0.087999   
394.000000	0.344000   
394.500000	0.142000   
395.000000	0.269000   
395.500000	0.318000   
396.000000	0.300000   
396.500000	0.137000   
397.000000	0.408000   
397.500000	0.354000   
398.000000	0.237000   
398.500000	0.127000   
399.000000	0.302000   
399.500000	0.352000   
400.000000	0.340000   
400.500000	0.234000   
401.000000	0.350000   
401.500000	0.223000   
402.000000	0.077000   
402.500000	0.039000   
403.000000	0.234000   
403.500000	0.217000   
404.000000	0.212000   
404.500000	0.512000   
405.000000	0.459000   
405.500000	0.022000   
406.000000	0.155000   
406.500000	0.253000   
407.000000	0.639000   
407.500000	0.454000   
408.000000	0.587000   
408.500000	1.273000   
409.000000	2.093000   
409.500000	4.047000   
410.000000	8.395000   
410.500000	14.827000  
411.000000	25.851000  
411.500000	39.377000  
412.000000	59.268000  
412.500000	77.534000  
413.000000	100.012000 
413.500000	122.501000 
414.000000	123.817000 
414.500000	120.546000 
415.000000	104.940000 
415.500000	88.877000  
416.000000	66.029000  
416.500000	41.196000  
417.000000	24.294000  
417.500000	12.499000  
418.000000	6.771000   
418.500000	3.342000   
419.000000	1.744000   
419.500000	1.014000   
420.000000	0.298000   
420.500000	0.386000   
421.000000	0.381000   
421.500000	0.495000   
422.000000	0.691999   
422.500000	0.668000   
423.000000	0.402000   
423.500000	0.370000   
424.000000	0.324000   
424.500000	0.281000   
425.000000	0.616000   
425.500000	0.421000   
426.000000	0.453000   
426.500000	0.201000   
427.000000	0.409000   
427.500000	0.521000   
428.000000	0.378000   
428.500000	0.370000   
429.000000	0.459000   
429.500000	0.523000   
430.000000	0.336000   
430.500000	0.490000   
431.000000	0.429000   
431.500000	0.265000   
432.000000	0.643000   
432.500000	0.620000   
433.000000	0.352000   
433.500000	1.023000   
434.000000	0.523000   
434.500000	0.597000   
435.000000	0.643000   
435.500000	0.503000   
436.000000	0.800000   
436.500000	0.572000   
437.000000	1.108000   
437.500000	0.545000   
438.000000	0.434000   
438.500000	0.716000   
439.000000	0.659000   
439.500000	0.593000   
440.000000	0.935000   
440.500000	0.996000   
441.000000	0.790000   
441.500000	0.583000   
442.000000	1.117000   
442.500000	0.735000   
443.000000	1.002000   
443.500000	0.973000   
444.000000	0.935000   
444.500000	0.881000   
445.000000	0.800000   
445.500000	0.850000   
446.000000	0.716000   
446.500000	0.846000   
447.000000	0.723000   
447.500000	1.779000   
448.000000	1.160000   
448.500000	0.938999   
449.000000	1.012000   
449.500000	1.022000   
450.000000	1.020000   
450.500000	1.508000   
451.000000	1.612000   
451.500000	1.455000   
452.000000	1.427000   
452.500000	1.322000   
453.000000	0.845000   
453.500000	1.781000   
454.000000	1.277000   
454.500000	1.501000   
455.000000	1.648000   
455.500000	1.102000   
456.000000	1.649000   
456.500000	1.841000   
457.000000	1.349000   
457.500000	1.776000   
458.000000	1.785000   
458.500000	1.409000   
459.000000	1.412000   
459.500000	1.855000   
460.000000	1.627000   
460.500000	1.447000   
461.000000	1.731000   
461.500000	1.256000   
462.000000	1.700000   
462.500000	2.301000   
463.000000	1.535000   
463.500000	1.777000   
464.000000	1.822000   
464.500000	2.154000   
465.000000	2.187000   
465.500000	1.578000   
466.000000	1.896000   
466.500000	1.915000   
467.000000	2.061000   
467.500000	1.903000   
468.000000	2.204000   
468.500000	2.225000   
469.000000	2.177000   
469.500000	2.856000   
470.000000	2.306000   
470.500000	2.226000   
471.000000	1.807000   
471.500000	2.182000   
472.000000	2.843000   
472.500000	2.072000   
473.000000	1.629000   
473.500000	2.207000   
474.000000	2.275000   
474.500000	2.828000   
475.000000	2.473000   
475.500000	3.668000   
476.000000	3.936000   
476.500000	3.316000   
477.000000	3.334000   
477.500000	4.568000   
478.000000	3.511000   
478.500000	4.678000   
479.000000	4.298000   
479.500000	4.925000   
480.000000	4.622000   
480.500000	4.975000   
481.000000	4.923000   
481.500000	5.365000   
482.000000	6.745000   
482.500000	6.309000   
483.000000	7.003000   
483.500000	8.747999   
484.000000	7.953000   
484.500000	8.738000   
485.000000	9.382999   
485.500000	10.005000  
486.000000	11.364000  
486.500000	12.410000  
487.000000	13.787000  
487.500000	13.769000  
488.000000	16.080000  
488.500000	16.580000  
489.000000	19.171000  
489.500000	20.494000  
490.000000	21.250000  
490.500000	24.566000  
491.000000	27.616000  
491.500000	28.727000  
492.000000	29.790000  
492.500000	32.923000  
493.000000	35.518000  
493.500000	40.816000  
494.000000	43.411000  
494.500000	44.836000  
495.000000	48.678000  
495.500000	51.694000  
496.000000	61.210000  
496.500000	66.041000  
497.000000	66.035000  
497.500000	73.149000  
498.000000	79.598000  
498.500000	83.208000  
499.000000	91.480999  
499.500000	95.458000  
500.000000	103.591000 
500.500000	109.491000 
501.000000	119.005000 
501.500000	123.075000 
502.000000	134.293000 
502.500000	145.419000 
503.000000	147.312000 
503.500000	158.380000 
504.000000	161.996000 
504.500000	169.560000 
505.000000	179.273000 
505.500000	183.112000 
506.000000	199.056000 
506.500000	200.125000 
507.000000	207.787000 
507.500000	223.902000 
508.000000	223.169000 
508.500000	224.377000 
509.000000	233.647000 
509.500000	250.795000 
510.000000	242.240000 
510.500000	246.912000 
511.000000	255.104000 
511.500000	259.129000 
512.000000	269.310000 
512.500000	262.904000 
513.000000	268.580000 
513.500000	267.218000 
514.000000	277.299000 
514.500000	274.925000 
515.000000	275.166000 
515.500000	268.029000 
516.000000	275.847000 
516.500000	278.539000 
517.000000	271.322000 
517.500000	281.766000 
518.000000	263.114000 
518.500000	262.842000 
519.000000	264.261000 
519.500000	263.881000 
520.000000	259.324000 
520.500000	259.048000 
521.000000	253.185000 
521.500000	250.874000 
522.000000	246.707000 
522.500000	246.928000 
523.000000	242.782000 
523.500000	230.826000 
524.000000	231.632000 
524.500000	223.373000 
525.000000	217.915000 
525.500000	213.103000 
526.000000	215.681000 
526.500000	217.201000 
527.000000	208.359000 
527.500000	200.292000 
528.000000	203.701000 
528.500000	195.660000 
529.000000	192.986000 
529.500000	190.089000 
530.000000	186.957000 
530.500000	178.455000 
531.000000	181.251000 
531.500000	167.769000 
532.000000	173.301000 
532.500000	168.774000 
533.000000	161.225000 
533.500000	162.962000 
534.000000	162.616000 
534.500000	156.915000 
535.000000	149.429000 
535.500000	141.729000 
536.000000	148.972000 
536.500000	142.264000 
537.000000	144.685000 
537.500000	142.539000 
538.000000	137.836000 
538.500000	134.755000 
539.000000	131.552000 
539.500000	127.759000 
540.000000	128.391000 
540.500000	130.334000 
541.000000	126.493000 
541.500000	117.260000 
542.000000	118.975000 
542.500000	117.282000 
543.000000	112.429000 
543.500000	117.152000 
544.000000	108.465000 
544.500000	111.251000 
545.000000	108.277000 
545.500000	104.145000 
546.000000	102.620000 
546.500000	102.900000 
547.000000	101.429000 
547.500000	99.200000  
548.000000	99.159000  
548.500000	99.537000  
549.000000	93.327000  
549.500000	93.098000  
550.000000	94.238000  
550.500000	90.307000  
551.000000	90.378000  
551.500000	87.577000  
552.000000	86.914000  
552.500000	84.596999  
553.000000	83.983999  
553.500000	82.828000  
554.000000	83.352000  
554.500000	80.924000  
555.000000	77.750000  
555.500000	79.917000  
556.000000	76.421000  
556.500000	75.188999  
557.000000	72.784000  
557.500000	73.514000  
558.000000	71.477000  
558.500000	70.248000  
559.000000	69.654000  
559.500000	65.935000  
560.000000	65.543000  
560.500000	63.886000  
561.000000	63.945000  
561.500000	63.252000  
562.000000	60.378000  
562.500000	60.946000  
563.000000	58.418000  
563.500000	58.933000  
564.000000	56.576000  
564.500000	53.759000  
565.000000	52.229000  
565.500000	52.378000  
566.000000	50.284000  
566.500000	49.525000  
567.000000	48.027000  
567.500000	48.701000  
568.000000	47.018000  
568.500000	45.791000  
569.000000	44.559000  
569.500000	40.181000  
570.000000	43.455000  
570.500000	42.124000  
571.000000	41.230000  
571.500000	41.463000  
572.000000	38.072000  
572.500000	37.064000  
573.000000	35.574000  
573.500000	37.041000  
574.000000	34.697000  
574.500000	35.096000  
575.000000	34.144000  
575.500000	34.553000  
576.000000	32.308000  
576.500000	31.696000  
577.000000	29.233000  
577.500000	30.250000  
578.000000	29.227000  
578.500000	28.003000  
579.000000	27.439000  
579.500000	25.063000  
580.000000	25.888000  
580.500000	25.507000  
581.000000	24.027000  
581.500000	25.329000  
582.000000	22.984000  
582.500000	24.778000  
583.000000	23.008000  
583.500000	21.872000  
584.000000	22.975000  
584.500000	22.421000  
585.000000	20.445000  
585.500000	22.040000  
586.000000	20.254000  
586.500000	20.102000  
587.000000	20.615000  
587.500000	20.727000  
588.000000	19.559000  
588.500000	20.037000  
589.000000	18.738000  
589.500000	17.479000  
590.000000	18.260000  
590.500000	17.336000  
591.000000	16.228000  
591.500000	16.425000  
592.000000	17.237000  
592.500000	16.732000  
593.000000	17.122000  
593.500000	15.311000  
594.000000	15.351000  
594.500000	16.825000  
595.000000	13.813000  
595.500000	15.263000  
596.000000	14.758000  
596.500000	14.023000  
597.000000	12.893000  
597.500000	13.255000  
598.000000	13.412000  
598.500000	13.096000  
599.000000	13.781000  
599.500000	12.798000  
600.000000	12.673000  
600.500000	12.411000  
601.000000	10.837000  
601.500000	11.339000  
602.000000	11.491000  
602.500000	11.374000  
603.000000	10.455000  
603.500000	10.511000  
604.000000	11.367000  
604.500000	12.421000  
605.000000	10.402000  
605.500000	9.436999   
606.000000	10.023000  
606.500000	10.040000  
607.000000	9.295000   
607.500000	8.792000   
608.000000	10.146000  
608.500000	8.798000   
609.000000	7.933000   
609.500000	8.818000   
610.000000	7.737000   
610.500000	9.134000   
611.000000	8.869999   
611.500000	9.839000   
612.000000	7.313000   
612.500000	7.091000   
613.000000	7.000000   
613.500000	8.333000   
614.000000	7.604000   
614.500000	7.407000   
615.000000	7.382000   
615.500000	7.317000   
616.000000	7.889000   
616.500000	6.317000   
617.000000	6.294000   
617.500000	6.537000   
618.000000	6.831000   
618.500000	5.896000   
619.000000	5.526000   
619.500000	6.080000   
620.000000	5.125000   
620.500000	5.350000   
621.000000	6.110000   
621.500000	5.067000   
622.000000	4.776000   
622.500000	4.961000   
623.000000	6.073000   
623.500000	5.510000   
624.000000	5.490000   
624.500000	4.667000   
625.000000	4.315000   
625.500000	5.077000   
626.000000	4.298000   
626.500000	4.778000   
627.000000	5.063000   
627.500000	4.114000   
628.000000	4.506000   
628.500000	4.103000   
629.000000	4.413000   
629.500000	3.706000   
630.000000	4.139000   
630.500000	3.832000   
631.000000	3.439000   
631.500000	3.332000   
632.000000	3.539000   
632.500000	3.947000   
633.000000	3.605000   
633.500000	3.344000   
634.000000	3.168000   
634.500000	3.191000   
635.000000	3.339000   
635.500000	3.077000   
636.000000	2.855000   
636.500000	3.456000   
637.000000	3.085000   
637.500000	2.368000   
638.000000	2.778000   
638.500000	1.917000   
639.000000	2.122000   
639.500000	3.085000   
640.000000	2.198000   
640.500000	2.447000   
641.000000	2.117000   
641.500000	2.534000   
642.000000	2.756000   
642.500000	1.942000   
643.000000	1.526000   
643.500000	2.894000   
644.000000	2.259000   
644.500000	2.060000   
645.000000	1.687000   
645.500000	1.737000   
646.000000	2.232000   
646.500000	1.854000   
647.000000	1.601000   
647.500000	1.555000   
648.000000	1.748000   
648.500000	1.471000   
649.000000	1.727000   
649.500000	1.676000   
650.000000	1.345000   
650.500000	1.689000   
651.000000	1.466000   
651.500000	1.213000   
652.000000	1.792000   
652.500000	1.536000   
653.000000	1.425000   
653.500000	1.218000   
654.000000	1.254000   
654.500000	1.473000   
655.000000	0.796000   
655.500000	1.548000   
656.000000	1.119000   
656.500000	1.357000   
657.000000	1.243000   
657.500000	1.494000   
658.000000	1.344000   
658.500000	1.427000   
659.000000	1.220000   
659.500000	1.055000   
660.000000	1.117000   
660.500000	1.381000   
661.000000	1.338000   
661.500000	0.972000   
662.000000	0.986000   
662.500000	1.103000   
663.000000	1.448000   
663.500000	0.876000   
664.000000	0.894000   
664.500000	1.284000   
665.000000	0.761000   
665.500000	1.064000   
666.000000	1.361000   
666.500000	1.161000   
667.000000	1.047000   
667.500000	0.965000   
668.000000	0.865000   
668.500000	1.050000   
669.000000	0.711000   
669.500000	1.164000   
670.000000	0.783000   
670.500000	0.540000   
671.000000	0.794000   
671.500000	0.951000   
672.000000	1.106000   
672.500000	0.827000   
673.000000	0.785000   
673.500000	0.508000   
674.000000	0.787000   
674.500000	0.669000   
675.000000	0.739000   
675.500000	0.841000   
676.000000	0.996000   
676.500000	0.953000   
677.000000	0.800000   
677.500000	0.788000   
678.000000	0.809000   
678.500000	0.697000   
679.000000	0.890000   
679.500000	0.839000   
680.000000	0.733000   
680.500000	0.437000   
681.000000	0.617000   
681.500000	0.898000   
682.000000	0.837000   
682.500000	0.585000   
683.000000	0.601000   
683.500000	0.718000   
684.000000	0.552000   
684.500000	0.737000   
685.000000	0.482000   
685.500000	0.892000   
686.000000	0.822000   
686.500000	0.634000   
687.000000	0.549000   
687.500000	0.643000   
688.000000	0.809000   
688.500000	0.706000   
689.000000	0.657000   
689.500000	1.202000   
690.000000	0.471000   
690.500000	0.617000   
691.000000	0.768000   
691.500000	0.566999   
692.000000	0.644000   
692.500000	0.596000   
693.000000	0.473000   
693.500000	0.374000   
694.000000	0.742000   
694.500000	0.706000   
695.000000	0.499000   
695.500000	0.541000   
696.000000	0.284000   
696.500000	0.637000   
697.000000	0.688999   
697.500000	0.278000   
698.000000	0.463000   
698.500000	0.534000   
699.000000	0.699000   
699.500000	0.423000   
700.000000	0.408000   
700.500000	0.393000   

