PE FL                   SPECTRUM    ASCII       PEDS        1.60        
  -1
DMB033.SP
23/03/01
17:39:20.00
23/03/01
17:40:21.00


700.500000
1









LS50-B
415.00
2.50
2.50
SCAN
1
20
100
100
0
400
0
1
0
1
7
ON
700 415 
1 0 0
#HDR
-1
-1
#GR
NM
INT 
0.00002384185791015625
0.0
380.000000
0.500000
642
8
496.368000
-0.242000
#DATA
380.000000	0.415000   
380.500000	0.281000   
381.000000	0.228000   
381.500000	0.249000   
382.000000	0.260000   
382.500000	0.244000   
383.000000	0.232000   
383.500000	0.191000   
384.000000	0.348000   
384.500000	0.217000   
385.000000	0.276000   
385.500000	0.000000   
386.000000	0.167000   
386.500000	0.078000   
387.000000	0.347000   
387.500000	0.109000   
388.000000	0.342000   
388.500000	0.066000   
389.000000	0.465000   
389.500000	0.235000   
390.000000	0.314000   
390.500000	0.339000   
391.000000	0.401000   
391.500000	0.176000   
392.000000	0.447000   
392.500000	0.251000   
393.000000	0.268000   
393.500000	0.135000   
394.000000	0.061000   
394.500000	0.155000   
395.000000	0.200000   
395.500000	0.426000   
396.000000	0.083000   
396.500000	0.163000   
397.000000	0.499000   
397.500000	0.364000   
398.000000	0.291000   
398.500000	0.482000   
399.000000	0.475000   
399.500000	0.110000   
400.000000	0.527000   
400.500000	0.402000   
401.000000	0.273000   
401.500000	0.179000   
402.000000	0.428000   
402.500000	0.357000   
403.000000	0.667000   
403.500000	0.353000   
404.000000	0.225000   
404.500000	0.207000   
405.000000	0.519000   
405.500000	0.247000   
406.000000	0.541000   
406.500000	0.620000   
407.000000	0.560000   
407.500000	0.660000   
408.000000	0.557000   
408.500000	1.228000   
409.000000	2.805000   
409.500000	5.945000   
410.000000	10.162000  
410.500000	18.888000  
411.000000	34.104000  
411.500000	56.183000  
412.000000	79.406000  
412.500000	105.626000 
413.000000	138.180000 
413.500000	154.333000 
414.000000	165.069000 
414.500000	150.357000 
415.000000	140.243000 
415.500000	107.536000 
416.000000	84.749000  
416.500000	55.310000  
417.000000	33.520000  
417.500000	19.138000  
418.000000	10.558000  
418.500000	5.042000   
419.000000	2.812000   
419.500000	0.978000   
420.000000	0.827000   
420.500000	0.740000   
421.000000	0.833000   
421.500000	0.486000   
422.000000	0.531000   
422.500000	0.465000   
423.000000	0.732000   
423.500000	0.453000   
424.000000	0.607000   
424.500000	0.548000   
425.000000	0.456000   
425.500000	0.559000   
426.000000	0.582000   
426.500000	0.464000   
427.000000	0.310000   
427.500000	0.781000   
428.000000	0.436000   
428.500000	0.625000   
429.000000	0.514000   
429.500000	0.892000   
430.000000	0.489000   
430.500000	0.585000   
431.000000	0.851000   
431.500000	0.896000   
432.000000	0.617000   
432.500000	0.947000   
433.000000	0.638000   
433.500000	0.620000   
434.000000	0.708000   
434.500000	0.934000   
435.000000	0.591000   
435.500000	1.109000   
436.000000	0.908000   
436.500000	1.082000   
437.000000	0.668000   
437.500000	1.322000   
438.000000	0.770000   
438.500000	1.062000   
439.000000	1.055000   
439.500000	0.639000   
440.000000	0.934000   
440.500000	0.998000   
441.000000	1.126000   
441.500000	1.269000   
442.000000	1.042000   
442.500000	1.138000   
443.000000	1.444000   
443.500000	1.667000   
444.000000	1.441000   
444.500000	1.506000   
445.000000	1.806000   
445.500000	1.501000   
446.000000	1.451000   
446.500000	1.070000   
447.000000	1.089000   
447.500000	1.129000   
448.000000	1.597000   
448.500000	1.644000   
449.000000	1.798000   
449.500000	1.320000   
450.000000	1.799000   
450.500000	1.896000   
451.000000	1.815000   
451.500000	3.302000   
452.000000	1.992000   
452.500000	1.960000   
453.000000	2.269000   
453.500000	2.534000   
454.000000	2.516000   
454.500000	2.586000   
455.000000	3.101000   
455.500000	2.166000   
456.000000	1.777000   
456.500000	2.120000   
457.000000	2.156000   
457.500000	1.643000   
458.000000	2.559000   
458.500000	2.402000   
459.000000	2.982000   
459.500000	3.112000   
460.000000	2.725000   
460.500000	2.613000   
461.000000	1.701000   
461.500000	3.164000   
462.000000	2.399000   
462.500000	2.172000   
463.000000	2.084000   
463.500000	2.203000   
464.000000	3.139000   
464.500000	2.342000   
465.000000	2.905000   
465.500000	3.242000   
466.000000	2.576000   
466.500000	2.610000   
467.000000	2.915000   
467.500000	2.826000   
468.000000	2.494000   
468.500000	2.618000   
469.000000	2.431000   
469.500000	3.058000   
470.000000	2.826000   
470.500000	3.332000   
471.000000	3.305000   
471.500000	3.878000   
472.000000	3.014000   
472.500000	2.708000   
473.000000	3.468000   
473.500000	2.964000   
474.000000	2.851000   
474.500000	2.728000   
475.000000	2.993000   
475.500000	3.683000   
476.000000	3.552000   
476.500000	3.021000   
477.000000	4.201000   
477.500000	3.788000   
478.000000	4.013000   
478.500000	4.236000   
479.000000	4.038000   
479.500000	4.278000   
480.000000	4.834000   
480.500000	4.829000   
481.000000	4.583000   
481.500000	5.078000   
482.000000	5.358000   
482.500000	5.821000   
483.000000	5.787000   
483.500000	6.996000   
484.000000	5.959000   
484.500000	6.518000   
485.000000	8.849000   
485.500000	7.647000   
486.000000	9.332000   
486.500000	9.388000   
487.000000	11.445000  
487.500000	10.847000  
488.000000	13.130000  
488.500000	13.825000  
489.000000	13.339000  
489.500000	14.827000  
490.000000	16.567000  
490.500000	19.575000  
491.000000	19.456000  
491.500000	22.290000  
492.000000	23.728000  
492.500000	24.696000  
493.000000	28.141000  
493.500000	29.160000  
494.000000	34.715000  
494.500000	35.182000  
495.000000	37.088000  
495.500000	41.890000  
496.000000	47.807000  
496.500000	52.097000  
497.000000	53.852000  
497.500000	61.976000  
498.000000	65.553000  
498.500000	74.156000  
499.000000	81.474999  
499.500000	86.662000  
500.000000	96.476000  
500.500000	102.759000 
501.000000	107.082000 
501.500000	120.055000 
502.000000	129.284000 
502.500000	142.393000 
503.000000	152.651000 
503.500000	163.081000 
504.000000	181.003000 
504.500000	186.061000 
505.000000	197.794000 
505.500000	212.169000 
506.000000	231.783000 
506.500000	239.260000 
507.000000	251.813000 
507.500000	273.883000 
508.000000	288.719000 
508.500000	292.144000 
509.000000	312.838000 
509.500000	328.159000 
510.000000	345.231000 
510.500000	353.822000 
511.000000	367.495000 
511.500000	377.916000 
512.000000	400.402000 
512.500000	409.538000 
513.000000	430.321000 
513.500000	433.807000 
514.000000	443.111000 
514.500000	450.835000 
515.000000	463.173000 
515.500000	467.782000 
516.000000	485.900000 
516.500000	482.285000 
517.000000	482.612000 
517.500000	486.816000 
518.000000	490.062000 
518.500000	486.379000 
519.000000	484.871000 
519.500000	491.010000 
520.000000	495.538000 
520.500000	496.368000 
521.000000	488.391000 
521.500000	483.241000 
522.000000	484.271000 
522.500000	481.654000 
523.000000	475.945000 
523.500000	473.462000 
524.000000	456.278000 
524.500000	451.434000 
525.000000	444.361000 
525.500000	449.650000 
526.000000	443.688000 
526.500000	441.193000 
527.000000	436.315000 
527.500000	424.175000 
528.000000	420.531000 
528.500000	409.067000 
529.000000	403.614000 
529.500000	396.683000 
530.000000	394.042000 
530.500000	378.325000 
531.000000	375.257000 
531.500000	374.376000 
532.000000	363.289000 
532.500000	361.005000 
533.000000	355.645000 
533.500000	344.137000 
534.000000	343.857000 
534.500000	343.230000 
535.000000	335.565000 
535.500000	326.446000 
536.000000	317.237000 
536.500000	308.981000 
537.000000	315.531000 
537.500000	302.288000 
538.000000	297.423000 
538.500000	291.919000 
539.000000	289.394000 
539.500000	285.586000 
540.000000	283.661000 
540.500000	274.466000 
541.000000	271.246000 
541.500000	265.601000 
542.000000	264.954000 
542.500000	261.669000 
543.000000	258.362000 
543.500000	251.755000 
544.000000	245.315000 
544.500000	241.507000 
545.000000	235.955000 
545.500000	231.913000 
546.000000	233.542000 
546.500000	231.375000 
547.000000	228.630000 
547.500000	219.133000 
548.000000	218.503000 
548.500000	208.917000 
549.000000	214.143000 
549.500000	211.439000 
550.000000	210.591000 
550.500000	203.520000 
551.000000	200.122000 
551.500000	199.062000 
552.000000	188.778000 
552.500000	186.827000 
553.000000	185.110000 
553.500000	185.566000 
554.000000	181.149000 
554.500000	176.938000 
555.000000	170.039000 
555.500000	170.726000 
556.000000	167.366000 
556.500000	164.130000 
557.000000	162.871000 
557.500000	169.636000 
558.000000	158.354000 
558.500000	156.809000 
559.000000	152.845000 
559.500000	145.619000 
560.000000	145.400000 
560.500000	145.482000 
561.000000	141.616000 
561.500000	136.652000 
562.000000	132.496000 
562.500000	131.950000 
563.000000	130.012000 
563.500000	127.527000 
564.000000	125.084000 
564.500000	118.757000 
565.000000	119.739000 
565.500000	114.392000 
566.000000	117.742000 
566.500000	113.309000 
567.000000	109.339000 
567.500000	105.185000 
568.000000	103.990000 
568.500000	101.958000 
569.000000	96.071000  
569.500000	94.324000  
570.000000	96.038000  
570.500000	95.143000  
571.000000	92.492999  
571.500000	90.522000  
572.000000	85.542000  
572.500000	86.416000  
573.000000	85.249000  
573.500000	81.337999  
574.000000	80.810000  
574.500000	76.473000  
575.000000	75.142000  
575.500000	70.614999  
576.000000	72.593999  
576.500000	69.571000  
577.000000	69.602999  
577.500000	66.857000  
578.000000	65.807000  
578.500000	63.400000  
579.000000	63.552000  
579.500000	62.175000  
580.000000	58.049000  
580.500000	58.452000  
581.000000	55.353000  
581.500000	58.362000  
582.000000	56.109000  
582.500000	57.946000  
583.000000	55.410000  
583.500000	52.672000  
584.000000	52.667000  
584.500000	48.221000  
585.000000	49.214000  
585.500000	46.150000  
586.000000	47.551000  
586.500000	46.210000  
587.000000	46.055000  
587.500000	44.851000  
588.000000	41.436000  
588.500000	40.225000  
589.000000	41.286000  
589.500000	42.229000  
590.000000	39.492000  
590.500000	38.003000  
591.000000	36.802000  
591.500000	37.657000  
592.000000	36.169000  
592.500000	35.675000  
593.000000	35.180000  
593.500000	35.047000  
594.000000	35.483000  
594.500000	33.631000  
595.000000	31.815000  
595.500000	35.147000  
596.000000	30.627000  
596.500000	30.354000  
597.000000	28.535000  
597.500000	31.842000  
598.000000	27.894000  
598.500000	28.190000  
599.000000	28.070000  
599.500000	24.603000  
600.000000	28.041000  
600.500000	26.877000  
601.000000	25.268000  
601.500000	25.294000  
602.000000	25.075000  
602.500000	26.071000  
603.000000	24.900000  
603.500000	21.912000  
604.000000	23.148000  
604.500000	23.449000  
605.000000	23.043000  
605.500000	21.654000  
606.000000	23.803000  
606.500000	22.807000  
607.000000	22.002000  
607.500000	18.865000  
608.000000	21.054000  
608.500000	19.611000  
609.000000	18.822000  
609.500000	18.344000  
610.000000	20.548000  
610.500000	20.186000  
611.000000	20.162000  
611.500000	17.980000  
612.000000	16.078000  
612.500000	16.817000  
613.000000	15.261000  
613.500000	17.998000  
614.000000	17.817000  
614.500000	15.726000  
615.000000	15.492000  
615.500000	16.067000  
616.000000	16.088000  
616.500000	15.489000  
617.000000	15.614000  
617.500000	14.387000  
618.000000	13.484000  
618.500000	13.734000  
619.000000	13.977000  
619.500000	13.244000  
620.000000	12.003000  
620.500000	12.354000  
621.000000	12.258000  
621.500000	13.521000  
622.000000	12.286000  
622.500000	10.947000  
623.000000	11.406000  
623.500000	10.792000  
624.000000	10.737000  
624.500000	10.850000  
625.000000	10.564000  
625.500000	10.578000  
626.000000	10.090000  
626.500000	9.222000   
627.000000	9.558000   
627.500000	10.266000  
628.000000	9.648999   
628.500000	8.741000   
629.000000	8.891999   
629.500000	8.109999   
630.000000	8.151000   
630.500000	8.016000   
631.000000	7.758000   
631.500000	7.574000   
632.000000	8.519000   
632.500000	7.976000   
633.000000	6.964000   
633.500000	6.355000   
634.000000	6.767000   
634.500000	7.658000   
635.000000	8.362000   
635.500000	5.695000   
636.000000	5.461000   
636.500000	5.971000   
637.000000	6.182000   
637.500000	5.568000   
638.000000	5.687000   
638.500000	5.533000   
639.000000	5.412000   
639.500000	5.687000   
640.000000	5.234000   
640.500000	4.817000   
641.000000	5.588000   
641.500000	4.846000   
642.000000	4.862000   
642.500000	4.749000   
643.000000	5.551000   
643.500000	4.408000   
644.000000	4.427000   
644.500000	4.488000   
645.000000	4.580000   
645.500000	4.433000   
646.000000	3.885000   
646.500000	4.026000   
647.000000	3.975000   
647.500000	3.978000   
648.000000	3.568000   
648.500000	4.270000   
649.000000	4.049000   
649.500000	3.634000   
650.000000	3.334000   
650.500000	3.452000   
651.000000	3.346000   
651.500000	3.082000   
652.000000	3.657000   
652.500000	3.320000   
653.000000	3.095000   
653.500000	3.993000   
654.000000	3.333000   
654.500000	3.249000   
655.000000	3.345000   
655.500000	3.693000   
656.000000	3.925000   
656.500000	3.850000   
657.000000	3.308000   
657.500000	3.276000   
658.000000	2.775000   
658.500000	2.887000   
659.000000	3.031000   
659.500000	2.619000   
660.000000	1.609000   
660.500000	2.624000   
661.000000	3.279000   
661.500000	2.399000   
662.000000	2.714000   
662.500000	2.786000   
663.000000	2.286000   
663.500000	2.554000   
664.000000	2.318000   
664.500000	2.126000   
665.000000	3.109000   
665.500000	2.203000   
666.000000	2.279000   
666.500000	1.937000   
667.000000	1.988000   
667.500000	1.669000   
668.000000	1.773000   
668.500000	1.756000   
669.000000	1.726000   
669.500000	2.135000   
670.000000	1.739000   
670.500000	1.588000   
671.000000	1.628000   
671.500000	1.870000   
672.000000	1.710000   
672.500000	1.732000   
673.000000	1.635000   
673.500000	1.858000   
674.000000	1.023000   
674.500000	1.763000   
675.000000	1.600000   
675.500000	1.491000   
676.000000	1.666000   
676.500000	1.915000   
677.000000	1.503000   
677.500000	0.795000   
678.000000	1.493000   
678.500000	1.718000   
679.000000	1.600000   
679.500000	1.363000   
680.000000	1.529000   
680.500000	1.409000   
681.000000	1.211000   
681.500000	1.400000   
682.000000	1.485000   
682.500000	1.317000   
683.000000	1.319000   
683.500000	1.166000   
684.000000	1.566000   
684.500000	1.408000   
685.000000	1.011000   
685.500000	1.273000   
686.000000	1.525000   
686.500000	1.201000   
687.000000	1.100000   
687.500000	0.918000   
688.000000	1.367000   
688.500000	1.157000   
689.000000	1.007000   
689.500000	1.135000   
690.000000	1.010000   
690.500000	1.182000   
691.000000	1.362000   
691.500000	1.620000   
692.000000	1.142000   
692.500000	1.022000   
693.000000	1.199000   
693.500000	1.016000   
694.000000	0.756000   
694.500000	1.143000   
695.000000	1.214000   
695.500000	1.002000   
696.000000	0.763000   
696.500000	0.975000   
697.000000	0.804000   
697.500000	0.623000   
698.000000	1.004000   
698.500000	0.885000   
699.000000	0.570000   
699.500000	0.978000   
700.000000	0.368000   
700.500000	-0.242000  

